thisRow.t,notes,phase,rep,session_type,session_order,block_order_in_session,n_pictures,actual_duration,estimated_duration,estimation_error,estimation_ratio,estimation_start_pos,per_picture_durations,per_fixation_durations,image_files,recognition_image,recognition_is_old,recognition_response,recognition_correct,recognition_rt,constant_image,participant,_n_fields,_n_header,sub,source_csv,estimated_duration_s,actual_duration_s,excluded_subject,included_analysis_subject
,,time_estimation,1,active,1,1,9,89.72639999999956,26.0,-63.72639999999956,0.289769789047595,0,"""[4.9591, 10.9472, 5.193, 6.7605, 15.3995, 7.8452, 13.3322, 10.8971, 5.6928]""","""[0.7753, 0.9774, 0.7762, 0.9101, 0.7436, 0.7939, 0.9766, 0.7597, 0.9934]""","""[""human_056.jpg"", ""social_118.jpg"", ""nature_054.jpg"", ""social_014.jpg"", ""human_076.jpg"", ""social_101.jpg"", ""human_074.jpg"", ""nature_035.jpg"", ""nature_012.jpg""]""",human_076.jpg,True,old,True,4.502765499999896,,001,24,23,001,/dss/studies/attentional-thief/data/sub-001/beh/attention_thief_ET_sub-001_2026-03-20_09h45.45.546.csv,26.0,89.72639999999956,False,True
,,time_estimation,1,active,1,2,12,114.77802040000006,30.0,-84.77802040000006,0.2613740844758461,0,"""[5.8596, 6.16, 11.8647, 5.4266, 4.5093, 5.5769, 10.5138, 13.5151, 11.5972, 8.1118, 12.3483, 7.5773]""","""[0.876, 0.9106, 0.8769, 0.8262, 0.9269, 0.8432, 0.7932, 0.7931, 0.7437, 1.0104, 0.9933, 0.7931]""","""[""social_112.jpg"", ""nature_058.jpg"", ""social_120.jpg"", ""nature_087.jpg"", ""nature_042.jpg"", ""human_023.jpg"", ""human_045.jpg"", ""human_025.jpg"", ""social_008.jpg"", ""nature_002.jpg"", ""human_007.jpg"", ""social_026.jpg""]""",nature_058.jpg,True,old,True,3.7097490000001017,,001,24,23,001,/dss/studies/attentional-thief/data/sub-001/beh/attention_thief_ET_sub-001_2026-03-20_09h45.45.546.csv,30.0,114.77802040000006,False,True
,,time_estimation,1,active,1,3,18,124.00167980000016,43.0,-81.00167980000015,0.3467694959403279,0,"""[4.4431, 4.5085, 6.5929, 3.5911, 4.5757, 4.3914, 4.7091, 9.2959, 4.6431, 7.6787, 5.1588, 4.6597, 9.4793, 8.428, 3.3247, 5.1948, 7.0935, 8.4615]""","""[0.9101, 0.893, 0.9605, 0.9778, 0.9109, 0.8938, 0.8277, 0.8103, 0.7098, 0.7761, 0.7764, 1.0107, 0.9766, 0.7431, 0.9108, 0.7104, 0.8707, 0.9612]""","""[""social_018.jpg"", ""human_064.jpg"", ""social_093.jpg"", ""human_036.jpg"", ""human_044.jpg"", ""nature_063.jpg"", ""nature_056.jpg"", ""human_085.jpg"", ""social_087.jpg"", ""social_063.jpg"", ""social_106.jpg"", ""nature_088.jpg"", ""nature_010.jpg"", ""human_108.jpg"", ""human_046.jpg"", ""social_054.jpg"", ""nature_089.jpg"", ""nature_125.jpg""]""",nature_125.jpg,True,old,True,2.1691839000000077,,001,24,23,001,/dss/studies/attentional-thief/data/sub-001/beh/attention_thief_ET_sub-001_2026-03-20_09h45.45.546.csv,43.0,124.00167980000016,False,True
,,time_estimation,1,constant,2,1,18,124.12954480000008,36.0,-88.12954480000008,0.2900195924991419,0,,,"[""social_099.jpg""]",social_099.jpg,True,old,True,3.63715830000001,social_099.jpg,001,24,23,001,/dss/studies/attentional-thief/data/sub-001/beh/attention_thief_ET_sub-001_2026-03-20_09h45.45.546.csv,36.0,124.12954480000008,False,True
,,time_estimation,1,constant,2,2,9,89.85532609999973,33.0,-56.85532609999973,0.36725702785024,0,,,"[""human_062.jpg""]",nature_047.jpg,False,new,True,5.46859029999996,human_062.jpg,001,24,23,001,/dss/studies/attentional-thief/data/sub-001/beh/attention_thief_ET_sub-001_2026-03-20_09h45.45.546.csv,33.0,89.85532609999973,False,True
,,time_estimation,1,constant,2,3,12,114.88889259999996,50.0,-64.88889259999996,0.4352030807197459,0,,,"[""nature_077.jpg""]",nature_077.jpg,True,old,True,1.435112499999832,nature_077.jpg,001,24,23,001,/dss/studies/attentional-thief/data/sub-001/beh/attention_thief_ET_sub-001_2026-03-20_09h45.45.546.csv,50.0,114.88889259999996,False,True
,,time_estimation,1,passive,3,1,12,114.95588599999974,33.0,-81.95588599999974,0.2870666405024278,0,"""[5.8596, 10.5138, 4.5093, 12.3483, 5.4266, 5.5769, 13.5151, 11.5972, 8.1118, 6.16, 11.8647, 7.5773]""","""[0.876, 0.7932, 0.9269, 0.9933, 0.8262, 0.8432, 0.7931, 0.7437, 1.0104, 0.9106, 0.8769, 0.7931]""","""[""social_125.jpg"", ""nature_049.jpg"", ""human_021.jpg"", ""nature_092.jpg"", ""social_044.jpg"", ""human_008.jpg"", ""human_089.jpg"", ""nature_026.jpg"", ""social_022.jpg"", ""social_036.jpg"", ""human_082.jpg"", ""nature_060.jpg""]""",human_070.jpg,False,new,True,3.362803299999996,,001,24,23,001,/dss/studies/attentional-thief/data/sub-001/beh/attention_thief_ET_sub-001_2026-03-20_09h45.45.546.csv,33.0,114.95588599999974,False,True
,,time_estimation,1,passive,3,2,9,90.02200760000005,31.5,-58.52200760000005,0.3499144358118045,0,"""[15.3995, 5.193, 10.9472, 5.6928, 7.8452, 10.8971, 4.9591, 13.3322, 6.7605]""","""[0.7436, 0.7762, 0.9774, 0.9934, 0.7939, 0.7597, 0.7753, 0.9766, 0.9101]""","""[""human_067.jpg"", ""social_024.jpg"", ""human_006.jpg"", ""human_035.jpg"", ""social_098.jpg"", ""nature_038.jpg"", ""nature_019.jpg"", ""social_051.jpg"", ""nature_037.jpg""]""",nature_019.jpg,True,old,True,1.9861525999995135,,001,24,23,001,/dss/studies/attentional-thief/data/sub-001/beh/attention_thief_ET_sub-001_2026-03-20_09h45.45.546.csv,31.5,90.02200760000005,False,True
,,time_estimation,1,passive,3,3,18,124.2452987000006,26.5,-97.7452987000006,0.2132877483274936,0,"""[3.3247, 9.2959, 4.6431, 4.6597, 6.5929, 4.5085, 4.3914, 4.4431, 3.5911, 5.1588, 8.4615, 8.428, 5.1948, 4.5757, 4.7091, 9.4793, 7.0935, 7.6787]""","""[0.9108, 0.8103, 0.7098, 1.0107, 0.9605, 0.893, 0.8938, 0.9101, 0.9778, 0.7764, 0.9612, 0.7431, 0.7104, 0.9109, 0.8277, 0.9766, 0.8707, 0.7761]""","""[""social_083.jpg"", ""social_064.jpg"", ""nature_118.jpg"", ""nature_103.jpg"", ""human_020.jpg"", ""human_018.jpg"", ""human_009.jpg"", ""human_123.jpg"", ""human_028.jpg"", ""nature_027.jpg"", ""human_014.jpg"", ""social_015.jpg"", ""nature_106.jpg"", ""social_121.jpg"", ""nature_111.jpg"", ""social_023.jpg"", ""social_002.jpg"", ""nature_048.jpg""]""",nature_048.jpg,True,old,True,1.5947353000001383,,001,24,23,001,/dss/studies/attentional-thief/data/sub-001/beh/attention_thief_ET_sub-001_2026-03-20_09h45.45.546.csv,26.5,124.2452987000006,False,True
,,time_estimation,2,active,4,1,18,125.33646489999956,35.0,-90.33646489999956,0.2792483418766036,0,"""[17.3849, 5.0265, 8.4115, 5.1099, 5.9436, 5.3592, 5.3256, 4.3413, 7.8941, 4.2927, 6.4766, 8.5115, 4.7428, 2.374, 5.1593, 3.8098, 4.4091, 3.4753]""","""[0.7264, 0.86, 0.9266, 0.8273, 0.8766, 0.9267, 0.7608, 0.8109, 0.8944, 0.7276, 0.9099, 0.777, 0.8773, 0.8267, 0.9107, 0.9105, 0.909, 0.8101]""","""[""social_011.jpg"", ""social_124.jpg"", ""social_009.jpg"", ""human_111.jpg"", ""social_110.jpg"", ""human_095.jpg"", ""nature_104.jpg"", ""social_031.jpg"", ""social_105.jpg"", ""nature_071.jpg"", ""human_071.jpg"", ""nature_074.jpg"", ""human_124.jpg"", ""human_061.jpg"", ""nature_059.jpg"", ""nature_016.jpg"", ""human_017.jpg"", ""nature_093.jpg""]""",social_119.jpg,False,new,True,3.909155500000452,,001,24,23,001,/dss/studies/attentional-thief/data/sub-001/beh/attention_thief_ET_sub-001_2026-03-20_09h45.45.546.csv,35.0,125.33646489999956,False,True
,,time_estimation,2,active,4,2,9,43.94726499999979,15.5,-28.44726499999979,0.3526954407743024,0,"""[4.2761, 3.1907, 2.0747, 6.4443, 4.5266, 7.1776, 2.3415, 2.53, 2.6745]""","""[0.8102, 0.8097, 0.8608, 0.9927, 0.9264, 0.9428, 0.7598, 0.8765, 0.7713]""","""[""nature_083.jpg"", ""nature_084.jpg"", ""social_037.jpg"", ""human_092.jpg"", ""nature_031.jpg"", ""human_084.jpg"", ""social_079.jpg"", ""human_049.jpg"", ""social_003.jpg""]""",nature_083.jpg,True,new,False,10.028362500000185,,001,24,23,001,/dss/studies/attentional-thief/data/sub-001/beh/attention_thief_ET_sub-001_2026-03-20_09h45.45.546.csv,15.5,43.94726499999979,False,True
,,time_estimation,2,active,4,3,12,63.3264365999994,30.5,-32.8264365999994,0.4816313949994194,0,"""[3.543, 5.8768, 4.743, 7.144, 2.3417, 6.6766, 4.659, 1.6402, 3.0582, 5.1768, 3.6251, 3.5751]""","""[0.7262, 0.8757, 0.8271, 0.9579, 0.9604, 0.7593, 0.8775, 0.8433, 0.8272, 0.7102, 0.8263, 0.8103]""","""[""human_048.jpg"", ""nature_046.jpg"", ""social_068.jpg"", ""nature_021.jpg"", ""social_025.jpg"", ""nature_025.jpg"", ""human_094.jpg"", ""human_015.jpg"", ""social_006.jpg"", ""human_079.jpg"", ""nature_023.jpg"", ""social_081.jpg""]""",social_006.jpg,True,old,True,1.7678073999995831,,001,24,23,001,/dss/studies/attentional-thief/data/sub-001/beh/attention_thief_ET_sub-001_2026-03-20_09h45.45.546.csv,30.5,63.3264365999994,False,True
,,time_estimation,2,passive,5,1,18,125.51366039999994,28.5,-97.01366039999994,0.2270669177296977,0,"""[2.374, 5.9436, 17.3849, 5.0265, 8.4115, 3.8098, 4.7428, 5.1099, 5.3256, 8.5115, 5.1593, 4.3413, 7.8941, 4.4091, 4.2927, 5.3592, 3.4753, 6.4766]""","""[0.8267, 0.8766, 0.7264, 0.86, 0.9266, 0.9105, 0.8773, 0.8273, 0.7608, 0.777, 0.9107, 0.8109, 0.8944, 0.909, 0.7276, 0.9267, 0.8101, 0.9099]""","""[""social_086.jpg"", ""social_096.jpg"", ""human_022.jpg"", ""human_117.jpg"", ""social_109.jpg"", ""human_097.jpg"", ""human_024.jpg"", ""human_031.jpg"", ""nature_040.jpg"", ""nature_112.jpg"", ""social_020.jpg"", ""human_030.jpg"", ""nature_014.jpg"", ""social_123.jpg"", ""nature_091.jpg"", ""social_032.jpg"", ""nature_006.jpg"", ""nature_001.jpg""]""",human_097.jpg,True,new,False,3.5485970999998244,,001,24,23,001,/dss/studies/attentional-thief/data/sub-001/beh/attention_thief_ET_sub-001_2026-03-20_09h45.45.546.csv,28.5,125.51366039999994,False,True
,,time_estimation,2,passive,5,2,12,63.57010570000057,21.5,-42.07010570000057,0.338209285060223,0,"""[4.659, 7.144, 3.0582, 1.6402, 3.6251, 6.6766, 3.543, 5.8768, 3.5751, 5.1768, 2.3417, 4.743]""","""[0.8775, 0.9579, 0.8272, 0.8433, 0.8263, 0.7593, 0.7262, 0.8757, 0.8103, 0.7102, 0.9604, 0.8271]""","""[""nature_052.jpg"", ""human_039.jpg"", ""social_077.jpg"", ""nature_024.jpg"", ""human_066.jpg"", ""nature_007.jpg"", ""nature_039.jpg"", ""social_108.jpg"", ""human_068.jpg"", ""social_100.jpg"", ""social_004.jpg"", ""human_093.jpg""]""",social_050.jpg,False,new,True,1.3442653000001883,,001,24,23,001,/dss/studies/attentional-thief/data/sub-001/beh/attention_thief_ET_sub-001_2026-03-20_09h45.45.546.csv,21.5,63.57010570000057,False,True
,,time_estimation,2,passive,5,3,9,44.10825779999959,20.0,-24.108257799999592,0.4534298337215256,0,"""[3.1907, 7.1776, 2.53, 2.0747, 4.2761, 6.4443, 4.5266, 2.3415, 2.6745]""","""[0.8097, 0.9428, 0.8765, 0.8608, 0.8102, 0.9927, 0.9264, 0.7598, 0.7713]""","""[""nature_011.jpg"", ""social_085.jpg"", ""social_021.jpg"", ""nature_013.jpg"", ""human_106.jpg"", ""nature_102.jpg"", ""social_013.jpg"", ""human_107.jpg"", ""human_081.jpg""]""",nature_117.jpg,False,new,True,1.8242362999999384,,001,24,23,001,/dss/studies/attentional-thief/data/sub-001/beh/attention_thief_ET_sub-001_2026-03-20_09h45.45.546.csv,20.0,44.10825779999959,False,True
,,time_estimation,2,constant,6,1,18,125.46401349999996,33.5,-91.96401349999996,0.267008834369865,0,,,"[""human_055.jpg""]",human_043.jpg,False,new,True,3.6791777999997066,human_055.jpg,001,24,23,001,/dss/studies/attentional-thief/data/sub-001/beh/attention_thief_ET_sub-001_2026-03-20_09h45.45.546.csv,33.5,125.46401349999996,False,True
,,time_estimation,2,constant,6,2,12,63.45412109999961,23.5,-39.95412109999961,0.370346316245804,0,,,"[""social_012.jpg""]",social_040.jpg,False,new,True,1.634760099999767,social_012.jpg,001,24,23,001,/dss/studies/attentional-thief/data/sub-001/beh/attention_thief_ET_sub-001_2026-03-20_09h45.45.546.csv,23.5,63.45412109999961,False,True
,,time_estimation,2,constant,6,3,9,44.057179800000085,19.5,-24.557179800000085,0.442606632755916,0,,,"[""nature_124.jpg""]",social_114.jpg,False,new,True,3.273329499999818,nature_124.jpg,001,24,23,001,/dss/studies/attentional-thief/data/sub-001/beh/attention_thief_ET_sub-001_2026-03-20_09h45.45.546.csv,19.5,44.057179800000085,False,True
,,time_estimation,3,active,7,1,12,70.71626379999998,15.5,-55.21626379999998,0.2191857879233716,0,"""[13.8319, 2.6245, 2.8088, 2.5418, 5.1432, 2.2075, 2.9921, 4.6928, 9.5461, 3.6095, 3.5414, 5.627]""","""[0.8269, 0.7939, 0.7768, 0.9762, 0.9931, 0.9431, 0.7596, 0.7262, 0.8764, 0.8102, 0.9428, 0.8936]""","""[""nature_018.jpg"", ""social_088.jpg"", ""nature_073.jpg"", ""nature_120.jpg"", ""human_120.jpg"", ""social_057.jpg"", ""human_053.jpg"", ""nature_003.jpg"", ""social_053.jpg"", ""social_060.jpg"", ""human_029.jpg"", ""human_065.jpg""]""",social_034.jpg,False,new,True,1.3625883999993675,,001,24,23,001,/dss/studies/attentional-thief/data/sub-001/beh/attention_thief_ET_sub-001_2026-03-20_09h45.45.546.csv,15.5,70.71626379999998,False,True
,,time_estimation,3,active,7,2,9,38.30774550000024,12.0,-26.30774550000024,0.313252577080004,0,"""[2.8906, 4.0924, 3.5089, 5.2761, 5.0759, 1.5906, 1.6247, 2.7086, 2.8078]""","""[0.7248, 0.9276, 0.7932, 0.8597, 0.7438, 0.9773, 0.8101, 0.9263, 0.9426]""","""[""social_074.jpg"", ""human_088.jpg"", ""social_089.jpg"", ""human_032.jpg"", ""social_016.jpg"", ""nature_096.jpg"", ""human_016.jpg"", ""nature_113.jpg"", ""nature_009.jpg""]""",social_039.jpg,False,new,True,1.177494200000183,,001,24,23,001,/dss/studies/attentional-thief/data/sub-001/beh/attention_thief_ET_sub-001_2026-03-20_09h45.45.546.csv,12.0,38.30774550000024,False,True
,,time_estimation,3,active,7,3,18,86.64409350000005,23.5,-63.14409350000005,0.2712244891799807,0,"""[9.4627, 6.6112, 7.995, 2.6751, 2.5251, 2.1574, 5.1604, 2.7073, 3.0575, 2.4081, 2.2908, 4.9094, 2.3086, 3.4586, 5.5936, 1.6071, 1.2903, 2.6252]""","""[0.9103, 0.9432, 0.9097, 0.7763, 0.8597, 0.8928, 0.8269, 0.7426, 0.7941, 0.9441, 0.7765, 1.0101, 0.7939, 0.9925, 0.8599, 0.9433, 0.8099, 0.877]""","""[""nature_043.jpg"", ""social_042.jpg"", ""social_059.jpg"", ""nature_122.jpg"", ""nature_075.jpg"", ""social_052.jpg"", ""human_110.jpg"", ""nature_053.jpg"", ""human_102.jpg"", ""social_061.jpg"", ""human_004.jpg"", ""social_091.jpg"", ""human_040.jpg"", ""human_080.jpg"", ""nature_041.jpg"", ""nature_022.jpg"", ""social_007.jpg"", ""human_057.jpg""]""",nature_062.jpg,False,new,True,1.1167507000000114,,001,24,23,001,/dss/studies/attentional-thief/data/sub-001/beh/attention_thief_ET_sub-001_2026-03-20_09h45.45.546.csv,23.5,86.64409350000005,False,True
,,time_estimation,3,constant,8,1,12,70.84225349999997,19.5,-51.34225349999997,0.2752594537382977,0,,,"[""nature_123.jpg""]",nature_123.jpg,True,old,True,1.1388381999995545,nature_123.jpg,001,24,23,001,/dss/studies/attentional-thief/data/sub-001/beh/attention_thief_ET_sub-001_2026-03-20_09h45.45.546.csv,19.5,70.84225349999997,False,True
,,time_estimation,3,constant,8,2,9,38.43661419999989,20.0,-18.43661419999989,0.5203371945284414,0,,,"[""social_103.jpg""]",nature_114.jpg,False,new,True,0.9795560000002296,social_103.jpg,001,24,23,001,/dss/studies/attentional-thief/data/sub-001/beh/attention_thief_ET_sub-001_2026-03-20_09h45.45.546.csv,20.0,38.43661419999989,False,True
,,time_estimation,3,constant,8,3,18,86.72101459999976,25.0,-61.72101459999976,0.2882807600362193,0,,,"[""human_087.jpg""]",human_077.jpg,False,new,True,1.4042247999996107,human_087.jpg,001,24,23,001,/dss/studies/attentional-thief/data/sub-001/beh/attention_thief_ET_sub-001_2026-03-20_09h45.45.546.csv,25.0,86.72101459999976,False,True
,,time_estimation,3,passive,9,1,12,71.00934469999993,21.5,-49.50934469999993,0.3027770512575934,0,"""[2.2075, 3.5414, 2.6245, 4.6928, 3.6095, 5.1432, 5.627, 2.9921, 2.5418, 13.8319, 2.8088, 9.5461]""","""[0.9431, 0.9428, 0.7939, 0.7262, 0.8102, 0.9931, 0.8936, 0.7596, 0.9762, 0.8269, 0.7768, 0.8764]""","""[""human_112.jpg"", ""human_101.jpg"", ""human_113.jpg"", ""nature_105.jpg"", ""nature_061.jpg"", ""social_072.jpg"", ""social_113.jpg"", ""social_048.jpg"", ""nature_017.jpg"", ""social_104.jpg"", ""human_063.jpg"", ""nature_070.jpg""]""",nature_072.jpg,False,new,True,2.2288808000002973,,001,24,23,001,/dss/studies/attentional-thief/data/sub-001/beh/attention_thief_ET_sub-001_2026-03-20_09h45.45.546.csv,21.5,71.00934469999993,False,True
,,time_estimation,3,passive,9,2,9,38.43634320000001,14.5,-23.93634320000001,0.3772471258400043,0,"""[2.8906, 1.5906, 2.7086, 3.5089, 1.6247, 5.0759, 5.2761, 4.0924, 2.8078]""","""[0.7248, 0.9773, 0.9263, 0.7932, 0.8101, 0.7438, 0.8597, 0.9276, 0.9426]""","""[""social_010.jpg"", ""social_056.jpg"", ""human_034.jpg"", ""nature_036.jpg"", ""social_095.jpg"", ""human_069.jpg"", ""nature_108.jpg"", ""human_096.jpg"", ""nature_097.jpg""]""",social_095.jpg,True,new,False,1.809787299999698,,001,24,23,001,/dss/studies/attentional-thief/data/sub-001/beh/attention_thief_ET_sub-001_2026-03-20_09h45.45.546.csv,14.5,38.43634320000001,False,True
,,time_estimation,3,passive,9,3,18,86.68665909999982,24.0,-62.686659099999815,0.2768592105079759,0,"""[2.6751, 6.6112, 2.3086, 2.4081, 2.5251, 2.2908, 5.5936, 3.4586, 3.0575, 9.4627, 7.995, 1.6071, 2.1574, 4.9094, 5.1604, 2.7073, 2.6252, 1.2903]""","""[0.7763, 0.9432, 0.7939, 0.9441, 0.8597, 0.7765, 0.8599, 0.9925, 0.7941, 0.9103, 0.9097, 0.9433, 0.8928, 1.0101, 0.8269, 0.7426, 0.877, 0.8099]""","""[""social_107.jpg"", ""social_041.jpg"", ""nature_109.jpg"", ""human_109.jpg"", ""social_028.jpg"", ""social_071.jpg"", ""nature_034.jpg"", ""human_100.jpg"", ""human_118.jpg"", ""nature_119.jpg"", ""nature_069.jpg"", ""social_073.jpg"", ""human_010.jpg"", ""social_047.jpg"", ""nature_095.jpg"", ""human_026.jpg"", ""nature_085.jpg"", ""human_058.jpg""]""",human_052.jpg,False,new,True,1.6248885999993945,,001,24,23,001,/dss/studies/attentional-thief/data/sub-001/beh/attention_thief_ET_sub-001_2026-03-20_09h45.45.546.csv,24.0,86.68665909999982,False,True
,,time_estimation,4,active,10,1,18,68.57997409999962,20.0,-48.57997409999962,0.2916303230274931,0,"""[2.4745, 2.258, 3.1751, 3.1076, 3.3087, 4.0418, 2.5745, 2.5745, 1.6903, 2.558, 3.8759, 3.0904, 2.308, 2.6246, 2.4074, 4.1588, 2.9242, 1.5397]""","""[0.8766, 0.7933, 0.7598, 0.7433, 0.8772, 0.7931, 0.8605, 0.7437, 0.9436, 0.8606, 0.8768, 0.9764, 0.9111, 1.0099, 0.91, 0.7104, 0.9769, 0.9103]""","""[""social_005.jpg"", ""human_001.jpg"", ""nature_008.jpg"", ""human_098.jpg"", ""social_115.jpg"", ""human_091.jpg"", ""social_092.jpg"", ""nature_030.jpg"", ""human_050.jpg"", ""social_045.jpg"", ""nature_121.jpg"", ""human_072.jpg"", ""social_076.jpg"", ""nature_004.jpg"", ""nature_067.jpg"", ""human_122.jpg"", ""nature_044.jpg"", ""social_029.jpg""]""",nature_044.jpg,True,new,False,0.9541913000011846,,001,24,23,001,/dss/studies/attentional-thief/data/sub-001/beh/attention_thief_ET_sub-001_2026-03-20_09h45.45.546.csv,20.0,68.57997409999962,False,True
,,time_estimation,4,active,10,2,9,30.471664900000174,12.5,-17.971664900000178,0.4102171653902615,0,"""[5.5091, 1.6907, 3.0253, 1.4411, 1.4733, 4.293, 1.5575, 1.2569, 1.7743]""","""[0.777, 0.761, 0.9097, 0.726, 0.7096, 0.9437, 0.8262, 0.7931, 0.9436]""","""[""social_001.jpg"", ""human_005.jpg"", ""nature_082.jpg"", ""nature_079.jpg"", ""human_086.jpg"", ""social_102.jpg"", ""nature_116.jpg"", ""human_019.jpg"", ""social_062.jpg""]""",nature_082.jpg,True,old,True,1.0017000999996526,,001,24,23,001,/dss/studies/attentional-thief/data/sub-001/beh/attention_thief_ET_sub-001_2026-03-20_09h45.45.546.csv,12.5,30.471664900000174,False,True
,,time_estimation,4,active,10,3,12,39.27623140000105,16.5,-22.77623140000105,0.420101405146512,0,"""[2.1252, 3.2909, 3.3588, 2.4911, 1.5072, 2.5248, 2.2244, 1.5573, 1.791, 2.625, 1.5901, 2.6245]""","""[0.8759, 0.7258, 0.7608, 0.9098, 0.9439, 0.9768, 0.8434, 0.91, 0.7099, 0.8262, 0.8431, 0.8272]""","""[""human_002.jpg"", ""human_012.jpg"", ""nature_068.jpg"", ""nature_057.jpg"", ""nature_029.jpg"", ""social_084.jpg"", ""social_082.jpg"", ""human_038.jpg"", ""social_116.jpg"", ""nature_066.jpg"", ""human_013.jpg"", ""social_019.jpg""]""",human_037.jpg,False,new,True,0.9604545000001964,,001,24,23,001,/dss/studies/attentional-thief/data/sub-001/beh/attention_thief_ET_sub-001_2026-03-20_09h45.45.546.csv,16.5,39.27623140000105,False,True
,,time_estimation,4,passive,11,1,12,39.50383829999919,16.0,-23.503838299999188,0.4050239340920026,0,"""[2.1252, 2.4911, 1.5072, 2.625, 3.2909, 3.3588, 1.791, 1.5901, 1.5573, 2.2244, 2.5248, 2.6245]""","""[0.8759, 0.9098, 0.9439, 0.8262, 0.7258, 0.7608, 0.7099, 0.8431, 0.91, 0.8434, 0.9768, 0.8272]""","""[""nature_076.jpg"", ""human_105.jpg"", ""human_041.jpg"", ""human_115.jpg"", ""nature_090.jpg"", ""social_080.jpg"", ""nature_100.jpg"", ""social_122.jpg"", ""human_104.jpg"", ""social_078.jpg"", ""nature_081.jpg"", ""social_017.jpg""]""",human_104.jpg,True,new,False,1.3225542999989557,,001,24,23,001,/dss/studies/attentional-thief/data/sub-001/beh/attention_thief_ET_sub-001_2026-03-20_09h45.45.546.csv,16.0,39.50383829999919,False,True
,,time_estimation,4,passive,11,2,18,68.3910063000003,18.5,-49.8910063000003,0.2705034038956657,0,"""[2.6246, 3.3087, 2.9242, 2.558, 3.1076, 4.0418, 2.5745, 2.4074, 3.0904, 2.5745, 3.8759, 2.4745, 2.258, 2.308, 3.1751, 1.5397, 4.1588, 1.6903]""","""[1.0099, 0.8772, 0.9769, 0.8606, 0.7433, 0.7931, 0.8605, 0.91, 0.9764, 0.7437, 0.8768, 0.8766, 0.7933, 0.9111, 0.7598, 0.9103, 0.7104, 0.9436]""","""[""social_038.jpg"", ""social_046.jpg"", ""human_114.jpg"", ""nature_078.jpg"", ""social_111.jpg"", ""social_075.jpg"", ""human_121.jpg"", ""human_059.jpg"", ""nature_101.jpg"", ""human_125.jpg"", ""nature_115.jpg"", ""human_027.jpg"", ""social_055.jpg"", ""nature_065.jpg"", ""human_011.jpg"", ""social_027.jpg"", ""nature_045.jpg"", ""nature_033.jpg""]""",human_114.jpg,True,old,True,3.3707994999986117,,001,24,23,001,/dss/studies/attentional-thief/data/sub-001/beh/attention_thief_ET_sub-001_2026-03-20_09h45.45.546.csv,18.5,68.3910063000003,False,True
,,time_estimation,4,passive,11,3,9,30.48048999999992,14.0,-16.480489999999918,0.4593102013779974,0,"""[1.5575, 4.293, 1.4733, 3.0253, 5.5091, 1.6907, 1.2569, 1.7743, 1.4411]""","""[0.8262, 0.9437, 0.7096, 0.9097, 0.777, 0.761, 0.7931, 0.9436, 0.726]""","""[""human_099.jpg"", ""social_058.jpg"", ""social_067.jpg"", ""human_051.jpg"", ""human_054.jpg"", ""nature_051.jpg"", ""nature_094.jpg"", ""social_066.jpg"", ""nature_107.jpg""]""",social_067.jpg,True,new,False,0.97312090000014,,001,24,23,001,/dss/studies/attentional-thief/data/sub-001/beh/attention_thief_ET_sub-001_2026-03-20_09h45.45.546.csv,14.0,30.48048999999992,False,True
,,time_estimation,4,constant,12,1,12,39.35465420000037,18.0,-21.35465420000037,0.4573791935389393,0,,,"[""social_070.jpg""]",nature_020.jpg,False,new,True,0.9811725999988994,social_070.jpg,001,24,23,001,/dss/studies/attentional-thief/data/sub-001/beh/attention_thief_ET_sub-001_2026-03-20_09h45.45.546.csv,18.0,39.35465420000037,False,True
,,time_estimation,4,constant,12,2,18,68.70854150000014,17.0,-51.70854150000014,0.2474219307944408,0,,,"[""nature_086.jpg""]",human_075.jpg,False,new,True,1.1010576999997284,nature_086.jpg,001,24,23,001,/dss/studies/attentional-thief/data/sub-001/beh/attention_thief_ET_sub-001_2026-03-20_09h45.45.546.csv,17.0,68.70854150000014,False,True
,,time_estimation,4,constant,12,3,9,30.598050700000385,16.5,-14.098050700000384,0.539250037911722,0,,,"[""human_003.jpg""]",human_003.jpg,True,old,True,0.9432475000012346,human_003.jpg,001,24,23,001,/dss/studies/attentional-thief/data/sub-001/beh/attention_thief_ET_sub-001_2026-03-20_09h45.45.546.csv,16.5,30.598050700000385,False,True
,,time_estimation,1,active,1,1,12,89.27726369999982,8.5,-80.77726369999982,0.0952090112053917,0,"""[5.5598, 6.143, 4.5259, 5.277, 3.3413, 5.093, 5.8936, 6.8441, 8.1119, 9.4964, 8.1124, 9.3456]""","""[0.7427, 0.86, 0.8438, 0.9935, 0.9597, 0.8103, 0.9598, 0.9433, 0.9436, 0.7599, 0.7262, 0.7425]""","""[""human_070.jpg"", ""social_089.jpg"", ""nature_084.jpg"", ""social_040.jpg"", ""nature_017.jpg"", ""human_102.jpg"", ""social_113.jpg"", ""social_068.jpg"", ""nature_018.jpg"", ""nature_093.jpg"", ""human_082.jpg"", ""human_041.jpg""]""",nature_071.jpg,False,new,True,3.060273600000073,,002,24,23,002,/dss/studies/attentional-thief/data/sub-002/beh/attention_thief_ET_sub-002_2026-03-24_14h12.49.746.csv,8.5,89.27726369999982,False,True
,,time_estimation,1,active,1,2,18,133.4757351999997,15.0,-118.47573519999968,0.1123799766116593,0,"""[6.6102, 5.043, 4.5089, 4.9769, 4.6093, 5.9762, 9.2787, 9.4796, 6.3943, 5.3265, 8.3947, 4.9262, 9.0795, 5.1598, 7.2781, 4.1425, 7.0103, 8.0615]""","""[0.8272, 0.7438, 0.9931, 0.9438, 0.7261, 0.9431, 0.7104, 0.7436, 0.8263, 0.8261, 0.8263, 0.9104, 0.7266, 0.9094, 0.9599, 0.8096, 0.9434, 0.8275]""","""[""nature_038.jpg"", ""social_030.jpg"", ""nature_033.jpg"", ""human_008.jpg"", ""social_100.jpg"", ""social_049.jpg"", ""human_105.jpg"", ""human_111.jpg"", ""nature_035.jpg"", ""nature_004.jpg"", ""nature_078.jpg"", ""social_075.jpg"", ""social_092.jpg"", ""social_110.jpg"", ""human_005.jpg"", ""human_074.jpg"", ""nature_105.jpg"", ""human_104.jpg""]""",human_084.jpg,False,new,True,1.573968600000626,,002,24,23,002,/dss/studies/attentional-thief/data/sub-002/beh/attention_thief_ET_sub-002_2026-03-24_14h12.49.746.csv,15.0,133.4757351999997,False,True
,,time_estimation,1,active,1,3,9,48.69960699999956,10.5,-38.19960699999956,0.215607489399249,0,"""[4.2085, 5.4924, 4.0594, 3.4084, 5.2588, 5.0763, 3.4417, 3.7588, 4.4258]""","""[0.8761, 0.994, 0.9941, 1.0095, 0.9269, 0.9773, 0.8098, 0.9936, 0.7935]""","""[""human_117.jpg"", ""nature_008.jpg"", ""social_079.jpg"", ""nature_064.jpg"", ""social_023.jpg"", ""human_024.jpg"", ""social_070.jpg"", ""nature_108.jpg"", ""human_093.jpg""]""",social_079.jpg,True,old,True,2.115369699999974,,002,24,23,002,/dss/studies/attentional-thief/data/sub-002/beh/attention_thief_ET_sub-002_2026-03-24_14h12.49.746.csv,10.5,48.69960699999956,False,True
,,time_estimation,1,passive,2,1,9,48.65934730000026,10.5,-38.15934730000026,0.2157858784102503,0,"""[4.4258, 5.4924, 3.7588, 5.0763, 5.2588, 3.4084, 4.0594, 4.2085, 3.4417]""","""[0.7935, 0.994, 0.9936, 0.9773, 0.9269, 1.0095, 0.9941, 0.8761, 0.8098]""","""[""social_120.jpg"", ""social_083.jpg"", ""nature_050.jpg"", ""social_102.jpg"", ""nature_091.jpg"", ""human_120.jpg"", ""human_011.jpg"", ""human_015.jpg"", ""nature_079.jpg""]""",nature_079.jpg,True,old,True,3.2009563000001435,,002,24,23,002,/dss/studies/attentional-thief/data/sub-002/beh/attention_thief_ET_sub-002_2026-03-24_14h12.49.746.csv,10.5,48.65934730000026,False,True
,,time_estimation,1,passive,2,2,12,89.57263609999973,11.0,-78.57263609999973,0.1228053619826427,0,"""[6.8441, 8.1124, 4.5259, 5.5598, 5.277, 5.8936, 9.3456, 5.093, 3.3413, 9.4964, 8.1119, 6.143]""","""[0.9433, 0.7262, 0.8438, 0.7427, 0.9935, 0.9598, 0.7425, 0.8103, 0.9597, 0.7599, 0.9436, 0.86]""","""[""human_052.jpg"", ""social_007.jpg"", ""nature_076.jpg"", ""human_006.jpg"", ""nature_014.jpg"", ""human_026.jpg"", ""nature_119.jpg"", ""social_055.jpg"", ""nature_053.jpg"", ""social_062.jpg"", ""human_027.jpg"", ""social_074.jpg""]""",social_074.jpg,True,old,True,1.491869899999983,,002,24,23,002,/dss/studies/attentional-thief/data/sub-002/beh/attention_thief_ET_sub-002_2026-03-24_14h12.49.746.csv,11.0,89.57263609999973,False,True
,,time_estimation,1,passive,2,3,18,133.93585110000004,12.0,-121.93585110000004,0.0895951300674565,0,"""[9.2787, 8.3947, 4.9262, 4.9769, 8.0615, 9.0795, 4.5089, 5.9762, 4.1425, 5.043, 4.6093, 7.0103, 5.1598, 5.3265, 6.3943, 9.4796, 7.2781, 6.6102]""","""[0.7104, 0.8263, 0.9104, 0.9438, 0.8275, 0.7266, 0.9931, 0.9431, 0.8096, 0.7438, 0.7261, 0.9434, 0.9094, 0.8261, 0.8263, 0.7436, 0.9599, 0.8272]""","""[""social_078.jpg"", ""nature_002.jpg"", ""nature_065.jpg"", ""nature_087.jpg"", ""social_047.jpg"", ""social_027.jpg"", ""human_053.jpg"", ""nature_047.jpg"", ""nature_113.jpg"", ""human_096.jpg"", ""human_099.jpg"", ""social_082.jpg"", ""nature_109.jpg"", ""social_116.jpg"", ""human_055.jpg"", ""social_032.jpg"", ""human_091.jpg"", ""human_098.jpg""]""",human_030.jpg,False,new,True,1.2284843999996156,,002,24,23,002,/dss/studies/attentional-thief/data/sub-002/beh/attention_thief_ET_sub-002_2026-03-24_14h12.49.746.csv,12.0,133.93585110000004,False,True
,,time_estimation,1,constant,3,1,9,48.809727900000325,8.5,-40.309727900000325,0.1741456132968924,0,,,"[""human_109.jpg""]",human_109.jpg,True,old,True,6.693455200000244,human_109.jpg,002,24,23,002,/dss/studies/attentional-thief/data/sub-002/beh/attention_thief_ET_sub-002_2026-03-24_14h12.49.746.csv,8.5,48.809727900000325,False,True
,,time_estimation,1,constant,3,2,18,133.5716891000002,120.0,-13.571689100000183,0.8983939696245096,0,,,"[""nature_120.jpg""]",human_032.jpg,False,new,True,3.69414659999984,nature_120.jpg,002,24,23,002,/dss/studies/attentional-thief/data/sub-002/beh/attention_thief_ET_sub-002_2026-03-24_14h12.49.746.csv,120.0,133.5716891000002,False,True
,,time_estimation,1,constant,3,3,12,89.42287729999953,90.0,0.5771227000004728,1.0064538596545525,0,,,"[""social_087.jpg""]",nature_117.jpg,False,new,True,1.5912768999996842,social_087.jpg,002,24,23,002,/dss/studies/attentional-thief/data/sub-002/beh/attention_thief_ET_sub-002_2026-03-24_14h12.49.746.csv,90.0,89.42287729999953,False,True
,,time_estimation,2,active,4,1,9,49.3000978,10.0,-39.3000978,0.2028393542050945,0,"""[7.5268, 4.943, 2.8753, 4.4924, 4.3098, 4.175, 3.1752, 4.9425, 4.3589]""","""[0.8096, 0.8776, 0.793, 0.7097, 0.8602, 0.7429, 0.9944, 0.9766, 0.7106]""","""[""social_008.jpg"", ""human_092.jpg"", ""human_046.jpg"", ""nature_046.jpg"", ""social_114.jpg"", ""human_019.jpg"", ""nature_056.jpg"", ""social_004.jpg"", ""nature_054.jpg""]""",human_046.jpg,True,old,True,1.3403587999991942,,002,24,23,002,/dss/studies/attentional-thief/data/sub-002/beh/attention_thief_ET_sub-002_2026-03-24_14h12.49.746.csv,10.0,49.3000978,False,True
,,time_estimation,2,active,4,2,18,124.9360216999994,24.0,-100.9360216999994,0.1920983209920803,0,"""[11.4971, 5.8601, 6.1271, 4.9089, 5.6434, 5.2597, 5.6771, 5.1593, 5.8104, 5.8265, 5.96, 5.727, 7.0605, 5.3432, 5.176, 6.7608, 4.8766, 5.0097]""","""[0.8097, 0.8604, 0.9766, 0.76, 0.9941, 0.7767, 0.7768, 0.793, 0.9768, 0.7263, 0.7767, 0.7436, 0.7597, 0.9107, 0.7934, 0.8605, 0.8433, 0.9764]""","""[""social_054.jpg"", ""human_077.jpg"", ""nature_040.jpg"", ""nature_081.jpg"", ""human_072.jpg"", ""social_018.jpg"", ""nature_044.jpg"", ""human_048.jpg"", ""social_050.jpg"", ""nature_115.jpg"", ""human_029.jpg"", ""social_072.jpg"", ""social_101.jpg"", ""human_043.jpg"", ""nature_085.jpg"", ""nature_057.jpg"", ""human_108.jpg"", ""social_104.jpg""]""",human_106.jpg,False,new,True,0.8566596999999092,,002,24,23,002,/dss/studies/attentional-thief/data/sub-002/beh/attention_thief_ET_sub-002_2026-03-24_14h12.49.746.csv,24.0,124.9360216999994,False,True
,,time_estimation,2,active,4,3,12,84.20779450000009,26.0,-58.20779450000009,0.308760016271415,0,"""[5.3763, 5.4764, 5.2598, 5.5765, 5.9774, 6.2609, 6.2769, 6.5277, 6.8943, 5.9439, 6.3939, 5.9436]""","""[0.9929, 0.9598, 0.8269, 0.9769, 0.9435, 0.8263, 1.0096, 0.8273, 0.9096, 0.9267, 0.893, 0.96]""","""[""nature_013.jpg"", ""human_057.jpg"", ""social_043.jpg"", ""social_033.jpg"", ""human_014.jpg"", ""social_108.jpg"", ""nature_028.jpg"", ""human_012.jpg"", ""nature_072.jpg"", ""nature_049.jpg"", ""social_069.jpg"", ""human_087.jpg""]""",social_108.jpg,True,old,True,6.739774699999543,,002,24,23,002,/dss/studies/attentional-thief/data/sub-002/beh/attention_thief_ET_sub-002_2026-03-24_14h12.49.746.csv,26.0,84.20779450000009,False,True
,,time_estimation,2,constant,5,1,9,49.44426359999943,55.0,5.555736400000569,1.1123636190629935,0,,,"[""human_083.jpg""]",human_083.jpg,True,old,True,2.2051824000000124,human_083.jpg,002,24,23,002,/dss/studies/attentional-thief/data/sub-002/beh/attention_thief_ET_sub-002_2026-03-24_14h12.49.746.csv,55.0,49.44426359999943,False,True
,,time_estimation,2,constant,5,2,18,125.06378089999998,120.0,-5.063780899999983,0.959510412498652,0,,,"[""nature_104.jpg""]",nature_015.jpg,False,new,True,0.9872826999999234,nature_104.jpg,002,24,23,002,/dss/studies/attentional-thief/data/sub-002/beh/attention_thief_ET_sub-002_2026-03-24_14h12.49.746.csv,120.0,125.06378089999998,False,True
,,time_estimation,2,constant,5,3,12,84.33540589999939,120.0,35.66459410000061,1.4228899324002764,0,,,"[""social_099.jpg""]",social_099.jpg,True,old,True,1.3191381999995428,social_099.jpg,002,24,23,002,/dss/studies/attentional-thief/data/sub-002/beh/attention_thief_ET_sub-002_2026-03-24_14h12.49.746.csv,120.0,84.33540589999939,False,True
,,time_estimation,2,passive,6,1,18,125.04743209999924,15.0,-110.04743209999924,0.1199544824559423,0,"""[5.176, 4.9089, 5.727, 6.7608, 7.0605, 5.3432, 5.96, 5.6771, 5.8265, 5.6434, 6.1271, 11.4971, 5.0097, 5.2597, 5.8601, 5.1593, 4.8766, 5.8104]""","""[0.7934, 0.76, 0.7436, 0.8605, 0.7597, 0.9107, 0.7767, 0.7768, 0.7263, 0.9941, 0.9766, 0.8097, 0.9764, 0.7767, 0.8604, 0.793, 0.8433, 0.9768]""","""[""human_050.jpg"", ""social_039.jpg"", ""nature_107.jpg"", ""social_046.jpg"", ""social_091.jpg"", ""social_001.jpg"", ""social_056.jpg"", ""human_071.jpg"", ""human_035.jpg"", ""nature_026.jpg"", ""nature_080.jpg"", ""human_007.jpg"", ""human_110.jpg"", ""nature_032.jpg"", ""human_062.jpg"", ""nature_097.jpg"", ""nature_116.jpg"", ""social_106.jpg""]""",nature_060.jpg,False,new,True,1.268739099999948,,002,24,23,002,/dss/studies/attentional-thief/data/sub-002/beh/attention_thief_ET_sub-002_2026-03-24_14h12.49.746.csv,15.0,125.04743209999924,False,True
,,time_estimation,2,passive,6,2,9,49.41045059999942,15.0,-34.41045059999942,0.3035795022682949,0,"""[4.3589, 4.9425, 4.3098, 3.1752, 4.943, 2.8753, 4.175, 4.4924, 7.5268]""","""[0.7106, 0.9766, 0.8602, 0.9944, 0.8776, 0.793, 0.7429, 0.7097, 0.8096]""","""[""human_020.jpg"", ""nature_012.jpg"", ""nature_112.jpg"", ""social_053.jpg"", ""human_054.jpg"", ""nature_094.jpg"", ""human_022.jpg"", ""social_022.jpg"", ""social_021.jpg""]""",social_103.jpg,False,new,True,0.8398458000001483,,002,24,23,002,/dss/studies/attentional-thief/data/sub-002/beh/attention_thief_ET_sub-002_2026-03-24_14h12.49.746.csv,15.0,49.41045059999942,False,True
,,time_estimation,2,passive,6,3,12,84.4193535000004,25.0,-59.4193535000004,0.2961406237255759,0,"""[6.5277, 5.2598, 6.8943, 5.9774, 5.9439, 6.3939, 6.2769, 5.3763, 5.5765, 5.4764, 5.9436, 6.2609]""","""[0.8273, 0.8269, 0.9096, 0.9435, 0.9267, 0.893, 1.0096, 0.9929, 0.9769, 0.9598, 0.96, 0.8263]""","""[""nature_020.jpg"", ""nature_114.jpg"", ""human_049.jpg"", ""social_066.jpg"", ""social_009.jpg"", ""nature_019.jpg"", ""human_010.jpg"", ""human_040.jpg"", ""social_094.jpg"", ""human_028.jpg"", ""social_060.jpg"", ""nature_111.jpg""]""",social_112.jpg,False,new,True,1.2197876000000178,,002,24,23,002,/dss/studies/attentional-thief/data/sub-002/beh/attention_thief_ET_sub-002_2026-03-24_14h12.49.746.csv,25.0,84.4193535000004,False,True
,,time_estimation,3,active,7,1,18,90.84433490000085,25.0,-65.84433490000083,0.2751960265603724,0,"""[4.5091, 4.8427, 3.8092, 3.4923, 3.9423, 3.0579, 3.7423, 4.2261, 5.8099, 4.7266, 3.842, 3.225, 3.4416, 3.7247, 4.6255, 3.559, 4.1425, 4.6258]""","""[0.9087, 0.8268, 0.9433, 0.9429, 0.8431, 0.7933, 0.777, 0.8597, 0.9265, 0.7437, 0.7427, 1.0099, 0.9931, 0.9098, 0.8272, 0.8607, 0.8097, 0.8766]""","""[""human_067.jpg"", ""nature_023.jpg"", ""social_063.jpg"", ""nature_070.jpg"", ""human_004.jpg"", ""nature_058.jpg"", ""human_009.jpg"", ""nature_024.jpg"", ""human_079.jpg"", ""social_006.jpg"", ""social_024.jpg"", ""human_114.jpg"", ""nature_021.jpg"", ""social_059.jpg"", ""social_036.jpg"", ""human_016.jpg"", ""nature_083.jpg"", ""social_013.jpg""]""",human_086.jpg,False,new,True,0.9793841999999132,,002,24,23,002,/dss/studies/attentional-thief/data/sub-002/beh/attention_thief_ET_sub-002_2026-03-24_14h12.49.746.csv,25.0,90.84433490000085,False,True
,,time_estimation,3,active,7,2,12,60.57434530000046,25.5,-35.07434530000046,0.420970294828755,0,"""[4.1249, 3.6582, 3.2086, 4.5758, 3.9758, 3.4087, 4.4084, 3.9252, 4.7593, 4.8262, 4.0088, 3.7584]""","""[0.8262, 0.9441, 0.8603, 0.7597, 0.7099, 0.9932, 0.7599, 0.9442, 0.9271, 0.9266, 0.9267, 0.9938]""","""[""social_048.jpg"", ""social_037.jpg"", ""social_051.jpg"", ""social_019.jpg"", ""nature_099.jpg"", ""human_036.jpg"", ""human_033.jpg"", ""nature_069.jpg"", ""nature_077.jpg"", ""human_013.jpg"", ""human_060.jpg"", ""nature_052.jpg""]""",human_033.jpg,True,old,True,1.3217671000002156,,002,24,23,002,/dss/studies/attentional-thief/data/sub-002/beh/attention_thief_ET_sub-002_2026-03-24_14h12.49.746.csv,25.5,60.57434530000046,False,True
,,time_estimation,3,active,7,3,9,40.92689810000047,18.0,-22.92689810000047,0.4398085571014675,0,"""[2.5583, 2.6745, 3.1086, 4.0085, 5.0264, 3.2917, 3.3917, 3.942, 4.0427]""","""[0.8082, 0.8594, 0.86, 0.8913, 0.9103, 0.8263, 0.9602, 0.8599, 0.9603]""","""[""human_021.jpg"", ""social_003.jpg"", ""nature_086.jpg"", ""human_034.jpg"", ""social_011.jpg"", ""nature_025.jpg"", ""human_039.jpg"", ""social_010.jpg"", ""nature_101.jpg""]""",nature_034.jpg,False,new,True,1.562428400000499,,002,24,23,002,/dss/studies/attentional-thief/data/sub-002/beh/attention_thief_ET_sub-002_2026-03-24_14h12.49.746.csv,18.0,40.92689810000047,False,True
,,time_estimation,3,passive,8,1,9,41.12195599999996,27.0,-14.121955999999956,0.6565835535644274,0,"""[3.2917, 3.942, 2.5583, 3.1086, 5.0264, 4.0427, 3.3917, 4.0085, 2.6745]""","""[0.8263, 0.8599, 0.8082, 0.86, 0.9103, 0.9603, 0.9602, 0.8913, 0.8594]""","""[""nature_067.jpg"", ""nature_068.jpg"", ""social_085.jpg"", ""nature_100.jpg"", ""social_028.jpg"", ""human_069.jpg"", ""human_090.jpg"", ""social_111.jpg"", ""human_116.jpg""]""",human_090.jpg,True,new,False,4.4639304000002085,,002,24,23,002,/dss/studies/attentional-thief/data/sub-002/beh/attention_thief_ET_sub-002_2026-03-24_14h12.49.746.csv,27.0,41.12195599999996,False,True
,,time_estimation,3,passive,8,2,12,60.61897839999983,24.0,-36.61897839999983,0.3959156131209242,0,"""[3.7584, 4.8262, 3.9758, 3.2086, 4.0088, 3.9252, 3.4087, 4.5758, 4.7593, 4.4084, 3.6582, 4.1249]""","""[0.9938, 0.9266, 0.7099, 0.8603, 0.9267, 0.9442, 0.9932, 0.7597, 0.9271, 0.7599, 0.9441, 0.8262]""","""[""nature_110.jpg"", ""nature_095.jpg"", ""nature_003.jpg"", ""nature_055.jpg"", ""human_094.jpg"", ""human_113.jpg"", ""social_042.jpg"", ""human_042.jpg"", ""social_016.jpg"", ""social_067.jpg"", ""social_080.jpg"", ""human_056.jpg""]""",social_016.jpg,True,new,False,4.446099599999798,,002,24,23,002,/dss/studies/attentional-thief/data/sub-002/beh/attention_thief_ET_sub-002_2026-03-24_14h12.49.746.csv,24.0,60.61897839999983,False,True
,,time_estimation,3,passive,8,3,18,91.27309130000047,36.0,-55.27309130000049,0.3944207376703566,0,"""[3.225, 3.9423, 4.6258, 5.8099, 4.6255, 3.0579, 3.559, 4.8427, 4.7266, 3.4416, 3.8092, 3.842, 3.7247, 3.7423, 3.4923, 4.1425, 4.2261, 4.5091]""","""[1.0099, 0.8431, 0.8766, 0.9265, 0.8272, 0.7933, 0.8607, 0.8268, 0.7437, 0.9931, 0.9433, 0.7427, 0.9098, 0.777, 0.9429, 0.8097, 0.8597, 0.9087]""","""[""social_073.jpg"", ""nature_007.jpg"", ""human_044.jpg"", ""nature_102.jpg"", ""human_064.jpg"", ""nature_090.jpg"", ""nature_036.jpg"", ""nature_010.jpg"", ""social_045.jpg"", ""human_001.jpg"", ""social_005.jpg"", ""social_064.jpg"", ""human_088.jpg"", ""social_086.jpg"", ""human_112.jpg"", ""human_061.jpg"", ""social_076.jpg"", ""nature_011.jpg""]""",nature_007.jpg,True,new,False,1.3329819000000498,,002,24,23,002,/dss/studies/attentional-thief/data/sub-002/beh/attention_thief_ET_sub-002_2026-03-24_14h12.49.746.csv,36.0,91.27309130000047,False,True
,,time_estimation,3,constant,9,1,9,41.02255839999998,45.0,3.97744160000002,1.0969574242839035,0,,,"[""human_045.jpg""]",human_045.jpg,True,old,True,1.2092042000003858,human_045.jpg,002,24,23,002,/dss/studies/attentional-thief/data/sub-002/beh/attention_thief_ET_sub-002_2026-03-24_14h12.49.746.csv,45.0,41.02255839999998,False,True
,,time_estimation,3,constant,9,2,12,60.6850527000006,120.0,59.3149472999994,1.9774226874816376,0,,,"[""social_117.jpg""]",social_117.jpg,True,old,True,1.5606582999998864,social_117.jpg,002,24,23,002,/dss/studies/attentional-thief/data/sub-002/beh/attention_thief_ET_sub-002_2026-03-24_14h12.49.746.csv,120.0,60.6850527000006,False,True
,,time_estimation,3,constant,9,3,18,90.95601549999992,120.0,29.04398450000008,1.319319006448783,0,,,"[""nature_051.jpg""]",social_115.jpg,False,new,True,4.078288200000316,nature_051.jpg,002,24,23,002,/dss/studies/attentional-thief/data/sub-002/beh/attention_thief_ET_sub-002_2026-03-24_14h12.49.746.csv,120.0,90.95601549999992,False,True
,,time_estimation,4,active,10,1,18,88.1780523999987,32.0,-56.17805239999871,0.3629020955786098,0,"""[2.458, 2.9745, 3.2577, 3.9589, 3.5248, 3.0738, 4.159, 3.0416, 3.3244, 4.0087, 5.0932, 4.5096, 3.8753, 3.9259, 5.2429, 4.4091, 5.2264, 4.2929]""","""[0.81, 0.9932, 0.9106, 0.844, 0.76, 0.8438, 0.911, 0.71, 0.9768, 0.9272, 0.8434, 0.9766, 0.9431, 0.8434, 0.8931, 0.7767, 0.7767, 0.9266]""","""[""nature_005.jpg"", ""nature_029.jpg"", ""social_081.jpg"", ""human_095.jpg"", ""human_068.jpg"", ""social_034.jpg"", ""nature_059.jpg"", ""human_059.jpg"", ""nature_106.jpg"", ""social_017.jpg"", ""social_090.jpg"", ""human_075.jpg"", ""nature_045.jpg"", ""human_063.jpg"", ""social_088.jpg"", ""human_081.jpg"", ""social_015.jpg"", ""nature_027.jpg""]""",nature_106.jpg,True,new,False,1.378398400000151,,002,24,23,002,/dss/studies/attentional-thief/data/sub-002/beh/attention_thief_ET_sub-002_2026-03-24_14h12.49.746.csv,32.0,88.1780523999987,False,True
,,time_estimation,4,active,10,2,9,46.93137430000024,28.0,-18.931374300000243,0.5966158122925426,0,"""[4.376, 2.8921, 3.7421, 4.6422, 3.8583, 4.1928, 4.0756, 5.977, 4.5922]""","""[0.7594, 0.8431, 0.9599, 0.9267, 0.9603, 0.76, 0.7428, 0.9433, 0.7765]""","""[""nature_042.jpg"", ""human_037.jpg"", ""social_014.jpg"", ""human_080.jpg"", ""nature_041.jpg"", ""human_065.jpg"", ""social_098.jpg"", ""social_044.jpg"", ""nature_088.jpg""]""",nature_042.jpg,True,old,True,1.7614787999991677,,002,24,23,002,/dss/studies/attentional-thief/data/sub-002/beh/attention_thief_ET_sub-002_2026-03-24_14h12.49.746.csv,28.0,46.93137430000024,False,True
,,time_estimation,4,active,10,3,12,61.97545720000016,30.0,-31.975457200000164,0.4840625846968325,0,"""[3.2082, 4.109, 4.009, 4.0922, 4.8593, 3.9754, 4.175, 3.3915, 4.0424, 4.5092, 5.3597, 5.0763]""","""[0.8257, 0.9602, 0.743, 0.8767, 0.71, 0.7769, 0.8265, 0.8943, 0.7269, 0.7931, 0.8433, 0.8766]""","""[""human_047.jpg"", ""nature_001.jpg"", ""human_119.jpg"", ""nature_030.jpg"", ""social_107.jpg"", ""social_020.jpg"", ""social_093.jpg"", ""human_025.jpg"", ""human_017.jpg"", ""social_029.jpg"", ""nature_022.jpg"", ""nature_092.jpg""]""",social_109.jpg,False,new,True,0.9648285000002944,,002,24,23,002,/dss/studies/attentional-thief/data/sub-002/beh/attention_thief_ET_sub-002_2026-03-24_14h12.49.746.csv,30.0,61.97545720000016,False,True
,,time_estimation,4,constant,11,1,18,88.32204979999915,90.0,1.6779502000008506,1.0189980894216164,0,,,"[""nature_063.jpg""]",social_097.jpg,False,new,True,1.0896967000007862,nature_063.jpg,002,24,23,002,/dss/studies/attentional-thief/data/sub-002/beh/attention_thief_ET_sub-002_2026-03-24_14h12.49.746.csv,90.0,88.32204979999915,False,True
,,time_estimation,4,constant,11,2,9,47.0431222999996,60.0,12.956877700000405,1.2754255471686775,0,,,"[""human_078.jpg""]",social_071.jpg,False,new,True,0.8848617999992712,human_078.jpg,002,24,23,002,/dss/studies/attentional-thief/data/sub-002/beh/attention_thief_ET_sub-002_2026-03-24_14h12.49.746.csv,60.0,47.0431222999996,False,True
,,time_estimation,4,constant,11,3,12,62.1033720000014,90.0,27.8966279999986,1.449196671639633,0,,,"[""social_057.jpg""]",human_038.jpg,False,new,True,1.2069128999992245,social_057.jpg,002,24,23,002,/dss/studies/attentional-thief/data/sub-002/beh/attention_thief_ET_sub-002_2026-03-24_14h12.49.746.csv,90.0,62.1033720000014,False,True
,,time_estimation,4,passive,12,1,18,88.23770390000027,30.0,-58.23770390000027,0.3399907145589257,0,"""[3.3244, 3.8753, 5.2264, 3.5248, 2.458, 5.0932, 3.9259, 4.4091, 4.0087, 5.2429, 4.2929, 4.5096, 3.0738, 2.9745, 3.9589, 3.0416, 4.159, 3.2577]""","""[0.9768, 0.9431, 0.7767, 0.76, 0.81, 0.8434, 0.8434, 0.7767, 0.9272, 0.8931, 0.9266, 0.9766, 0.8438, 0.9932, 0.844, 0.71, 0.911, 0.9106]""","""[""nature_048.jpg"", ""human_085.jpg"", ""social_105.jpg"", ""social_095.jpg"", ""social_077.jpg"", ""nature_074.jpg"", ""human_002.jpg"", ""nature_075.jpg"", ""social_065.jpg"", ""nature_039.jpg"", ""social_038.jpg"", ""social_052.jpg"", ""human_103.jpg"", ""nature_082.jpg"", ""human_003.jpg"", ""human_089.jpg"", ""nature_089.jpg"", ""human_023.jpg""]""",nature_006.jpg,False,new,True,1.5348887000000104,,002,24,23,002,/dss/studies/attentional-thief/data/sub-002/beh/attention_thief_ET_sub-002_2026-03-24_14h12.49.746.csv,30.0,88.23770390000027,False,True
,,time_estimation,4,passive,12,2,9,47.02589309999894,30.0,-17.02589309999894,0.637946416800762,0,"""[5.977, 2.8921, 4.5922, 4.0756, 4.6422, 4.1928, 4.376, 3.7421, 3.8583]""","""[0.9433, 0.8431, 0.7765, 0.7428, 0.9267, 0.76, 0.7594, 0.9599, 0.9603]""","""[""social_061.jpg"", ""nature_062.jpg"", ""nature_066.jpg"", ""nature_016.jpg"", ""human_051.jpg"", ""human_058.jpg"", ""social_041.jpg"", ""human_076.jpg"", ""social_084.jpg""]""",social_084.jpg,True,old,True,1.024627299999338,,002,24,23,002,/dss/studies/attentional-thief/data/sub-002/beh/attention_thief_ET_sub-002_2026-03-24_14h12.49.746.csv,30.0,47.02589309999894,False,True
,,time_estimation,4,passive,12,3,12,62.120053100001314,50.0,-12.120053100001314,0.8048930660041393,0,"""[3.9754, 4.5092, 4.0922, 4.009, 5.0763, 4.109, 3.2082, 5.3597, 4.8593, 4.0424, 3.3915, 4.175]""","""[0.7769, 0.7931, 0.8767, 0.743, 0.8766, 0.9602, 0.8257, 0.8433, 0.71, 0.7269, 0.8943, 0.8265]""","""[""nature_098.jpg"", ""social_031.jpg"", ""human_118.jpg"", ""human_097.jpg"", ""nature_073.jpg"", ""social_058.jpg"", ""human_018.jpg"", ""nature_031.jpg"", ""social_025.jpg"", ""nature_037.jpg"", ""social_096.jpg"", ""human_115.jpg""]""",human_118.jpg,True,old,True,1.0559073000003991,,002,24,23,002,/dss/studies/attentional-thief/data/sub-002/beh/attention_thief_ET_sub-002_2026-03-24_14h12.49.746.csv,50.0,62.120053100001314,False,True
,,time_estimation,1,active,1,1,9,29.119878900000916,12.0,-17.119878900000913,0.4120896258260065,0,"""[4.3426, 1.8736, 2.0073, 2.3746, 2.3744, 1.8736, 1.4741, 2.4411, 1.9242]""","""[0.7263, 0.9267, 0.927, 0.727, 0.9935, 0.777, 0.9104, 0.8264, 0.8099]""","""[""social_104.jpg"", ""social_024.jpg"", ""human_059.jpg"", ""human_031.jpg"", ""social_094.jpg"", ""nature_069.jpg"", ""nature_031.jpg"", ""human_036.jpg"", ""nature_070.jpg""]""",nature_098.jpg,False,new,True,4.238336299997172,,003,24,23,003,/dss/studies/attentional-thief/data/sub-003/beh/attention_thief_ET_sub-003_2026-03-25_15h18.49.121.csv,12.0,29.119878900000916,False,True
,,time_estimation,1,active,1,2,18,90.02780950000306,50.0,-40.02780950000306,0.5553839450019974,0,"""[2.3414, 1.4896, 2.2909, 2.4745, 2.0906, 1.9907, 3.5416, 4.4426, 4.159, 3.5926, 3.7921, 5.5096, 5.0432, 7.3446, 4.8594, 5.9437, 6.8609, 4.1256]""","""[0.9591, 0.9597, 0.9938, 0.7601, 0.9768, 0.877, 0.8933, 0.7936, 1.01, 0.977, 0.8595, 0.8268, 0.8601, 0.7764, 0.7431, 0.9269, 0.9599, 0.8766]""","""[""human_085.jpg"", ""nature_075.jpg"", ""nature_073.jpg"", ""nature_034.jpg"", ""nature_044.jpg"", ""human_087.jpg"", ""social_116.jpg"", ""human_035.jpg"", ""human_109.jpg"", ""social_027.jpg"", ""nature_084.jpg"", ""social_025.jpg"", ""human_065.jpg"", ""social_106.jpg"", ""social_097.jpg"", ""human_046.jpg"", ""social_084.jpg"", ""nature_036.jpg""]""",human_087.jpg,True,new,False,5.4780031999980565,,003,24,23,003,/dss/studies/attentional-thief/data/sub-003/beh/attention_thief_ET_sub-003_2026-03-25_15h18.49.121.csv,50.0,90.02780950000306,False,True
,,time_estimation,1,active,1,3,12,59.04103820000091,40.0,-19.041038200000912,0.6774948615317435,0,"""[2.7078, 4.626, 2.7576, 3.3417, 2.7573, 4.2255, 3.1252, 3.9928, 4.7763, 6.9948, 4.3755, 3.376]""","""[0.9261, 0.8435, 0.76, 0.9936, 0.96, 0.8943, 0.9602, 0.9933, 0.7763, 0.9765, 0.8097, 0.8602]""","""[""social_035.jpg"", ""nature_107.jpg"", ""nature_004.jpg"", ""social_004.jpg"", ""human_002.jpg"", ""social_077.jpg"", ""nature_114.jpg"", ""human_115.jpg"", ""nature_015.jpg"", ""human_090.jpg"", ""human_106.jpg"", ""social_108.jpg""]""",nature_107.jpg,True,new,False,3.496466299999156,,003,24,23,003,/dss/studies/attentional-thief/data/sub-003/beh/attention_thief_ET_sub-003_2026-03-25_15h18.49.121.csv,40.0,59.04103820000091,False,True
,,time_estimation,1,passive,2,1,9,29.5301627000008,15.0,-14.5301627000008,0.5079552101485575,0,"""[1.8736, 4.3426, 2.4411, 2.0073, 1.8736, 1.4741, 2.3746, 2.3744, 1.9242]""","""[0.9267, 0.7263, 0.8264, 0.927, 0.777, 0.9104, 0.727, 0.9935, 0.8099]""","""[""human_093.jpg"", ""social_053.jpg"", ""human_042.jpg"", ""social_014.jpg"", ""nature_042.jpg"", ""nature_104.jpg"", ""human_018.jpg"", ""nature_081.jpg"", ""social_046.jpg""]""",human_008.jpg,False,new,True,2.7851811000000453,,003,24,23,003,/dss/studies/attentional-thief/data/sub-003/beh/attention_thief_ET_sub-003_2026-03-25_15h18.49.121.csv,15.0,29.5301627000008,False,True
,,time_estimation,1,passive,2,2,12,59.283961799999815,40.0,-19.283961799999812,0.6747187398666754,0,"""[3.9928, 3.376, 2.7573, 3.1252, 3.3417, 2.7078, 4.7763, 6.9948, 4.2255, 4.626, 2.7576, 4.3755]""","""[0.9933, 0.8602, 0.96, 0.9602, 0.9936, 0.9261, 0.7763, 0.9765, 0.8943, 0.8435, 0.76, 0.8097]""","""[""human_103.jpg"", ""nature_120.jpg"", ""human_061.jpg"", ""nature_079.jpg"", ""social_101.jpg"", ""social_039.jpg"", ""nature_005.jpg"", ""human_054.jpg"", ""social_067.jpg"", ""human_023.jpg"", ""social_056.jpg"", ""nature_118.jpg""]""",human_037.jpg,False,new,True,3.5275503999982902,,003,24,23,003,/dss/studies/attentional-thief/data/sub-003/beh/attention_thief_ET_sub-003_2026-03-25_15h18.49.121.csv,40.0,59.283961799999815,False,True
,,time_estimation,1,passive,2,3,18,90.10486119999769,70.0,-20.10486119999769,0.7768726244927815,0,"""[2.2909, 4.4426, 4.8594, 5.0432, 5.5096, 4.1256, 1.9907, 3.5416, 4.159, 2.0906, 1.4896, 2.3414, 6.8609, 3.5926, 2.4745, 5.9437, 7.3446, 3.7921]""","""[0.9938, 0.7936, 0.7431, 0.8601, 0.8268, 0.8766, 0.877, 0.8933, 1.01, 0.9768, 0.9597, 0.9591, 0.9599, 0.977, 0.7601, 0.9269, 0.7764, 0.8595]""","""[""human_019.jpg"", ""nature_043.jpg"", ""nature_117.jpg"", ""social_029.jpg"", ""human_076.jpg"", ""nature_001.jpg"", ""social_020.jpg"", ""social_044.jpg"", ""nature_023.jpg"", ""social_031.jpg"", ""nature_040.jpg"", ""human_028.jpg"", ""human_038.jpg"", ""nature_020.jpg"", ""social_015.jpg"", ""human_013.jpg"", ""human_117.jpg"", ""social_048.jpg""]""",nature_072.jpg,False,new,True,5.489465200000268,,003,24,23,003,/dss/studies/attentional-thief/data/sub-003/beh/attention_thief_ET_sub-003_2026-03-25_15h18.49.121.csv,70.0,90.10486119999769,False,True
,,time_estimation,1,constant,3,1,18,90.13971650000168,50.0,-40.13971650000167,0.5546944448177743,0,,,"[""human_029.jpg""]",human_029.jpg,True,old,True,7.510397199999716,human_029.jpg,003,24,23,003,/dss/studies/attentional-thief/data/sub-003/beh/attention_thief_ET_sub-003_2026-03-25_15h18.49.121.csv,50.0,90.13971650000168,False,True
,,time_estimation,1,constant,3,2,12,59.16725009999936,50.0,-9.167250099999364,0.8450620895088808,0,,,"[""nature_088.jpg""]",nature_007.jpg,False,new,True,1.6074776999994356,nature_088.jpg,003,24,23,003,/dss/studies/attentional-thief/data/sub-003/beh/attention_thief_ET_sub-003_2026-03-25_15h18.49.121.csv,50.0,59.16725009999936,False,True
,,time_estimation,1,constant,3,3,9,29.264111099997532,20.0,-9.264111099997535,0.6834309756294523,0,,,"[""social_007.jpg""]",social_007.jpg,True,old,True,3.642353200000798,social_007.jpg,003,24,23,003,/dss/studies/attentional-thief/data/sub-003/beh/attention_thief_ET_sub-003_2026-03-25_15h18.49.121.csv,20.0,29.264111099997532,False,True
,,time_estimation,2,active,4,1,12,63.22685769999953,50.0,-13.226857699999528,0.7908031779349423,0,"""[5.5929, 5.393, 5.9436, 2.8247, 2.3577, 4.9427, 5.6432, 4.2758, 2.9412, 3.775, 3.9421, 3.7588]""","""[0.8262, 0.7938, 0.71, 0.9935, 0.9268, 0.9938, 0.9935, 0.8103, 0.7266, 0.827, 0.9773, 0.8599]""","""[""social_033.jpg"", ""human_069.jpg"", ""nature_059.jpg"", ""social_028.jpg"", ""nature_087.jpg"", ""social_072.jpg"", ""human_119.jpg"", ""nature_074.jpg"", ""nature_016.jpg"", ""human_064.jpg"", ""social_018.jpg"", ""human_091.jpg""]""",social_042.jpg,False,new,True,2.348606800002017,,003,24,23,003,/dss/studies/attentional-thief/data/sub-003/beh/attention_thief_ET_sub-003_2026-03-25_15h18.49.121.csv,50.0,63.22685769999953,False,True
,,time_estimation,2,active,4,2,9,36.925628799999686,35.0,-1.9256287999996855,0.9478511575136752,0,"""[5.2429, 3.3079, 2.7244, 2.091, 2.3078, 2.2082, 3.8255, 2.7912, 3.642]""","""[0.8934, 0.9937, 0.894, 0.8272, 0.86, 0.9767, 0.8763, 0.7767, 0.7603]""","""[""social_105.jpg"", ""nature_086.jpg"", ""human_003.jpg"", ""human_043.jpg"", ""social_120.jpg"", ""nature_013.jpg"", ""social_063.jpg"", ""nature_039.jpg"", ""human_078.jpg""]""",human_003.jpg,True,old,True,3.628057000001718,,003,24,23,003,/dss/studies/attentional-thief/data/sub-003/beh/attention_thief_ET_sub-003_2026-03-25_15h18.49.121.csv,35.0,36.925628799999686,False,True
,,time_estimation,2,active,4,3,18,88.17665910000142,80.0,-8.176659100001416,0.9072695746985804,0,"""[2.9078, 3.0411, 2.4405, 2.7243, 2.9079, 4.1761, 3.4917, 3.0753, 5.4932, 3.4583, 5.1762, 2.8911, 4.426, 6.1274, 4.0421, 4.976, 5.1093, 3.4748]""","""[0.9928, 0.977, 0.8104, 1.0106, 0.9772, 0.7932, 0.9764, 0.7433, 0.7763, 0.8102, 0.9605, 0.8434, 0.9937, 0.9434, 0.9265, 0.7936, 0.8434, 0.9437]""","""[""nature_038.jpg"", ""human_082.jpg"", ""human_083.jpg"", ""nature_035.jpg"", ""nature_091.jpg"", ""social_050.jpg"", ""social_022.jpg"", ""social_093.jpg"", ""nature_030.jpg"", ""social_013.jpg"", ""social_002.jpg"", ""nature_094.jpg"", ""human_052.jpg"", ""social_043.jpg"", ""human_001.jpg"", ""nature_012.jpg"", ""human_088.jpg"", ""human_111.jpg""]""",human_060.jpg,False,new,True,3.410069500001555,,003,24,23,003,/dss/studies/attentional-thief/data/sub-003/beh/attention_thief_ET_sub-003_2026-03-25_15h18.49.121.csv,80.0,88.17665910000142,False,True
,,time_estimation,2,constant,5,1,12,63.33780160000242,60.0,-3.3378016000024218,0.9473015874298628,0,,,"[""human_096.jpg""]",human_096.jpg,True,old,True,4.412922899999103,human_096.jpg,003,24,23,003,/dss/studies/attentional-thief/data/sub-003/beh/attention_thief_ET_sub-003_2026-03-25_15h18.49.121.csv,60.0,63.33780160000242,False,True
,,time_estimation,2,constant,5,2,9,37.05239520000032,40.0,2.947604799999681,1.079552341598679,0,,,"[""social_087.jpg""]",human_017.jpg,False,new,True,2.0801197000000684,social_087.jpg,003,24,23,003,/dss/studies/attentional-thief/data/sub-003/beh/attention_thief_ET_sub-003_2026-03-25_15h18.49.121.csv,40.0,37.05239520000032,False,True
,,time_estimation,2,constant,5,3,18,88.32163280000168,90.0,1.6783671999983198,1.0190029004988943,0,,,"[""nature_017.jpg""]",human_058.jpg,False,new,True,2.329723599999852,nature_017.jpg,003,24,23,003,/dss/studies/attentional-thief/data/sub-003/beh/attention_thief_ET_sub-003_2026-03-25_15h18.49.121.csv,90.0,88.32163280000168,False,True
,,time_estimation,2,passive,6,1,18,88.38837250000142,80.0,-8.388372500001424,0.9050964254376186,0,"""[5.1762, 3.4917, 4.1761, 4.976, 4.426, 6.1274, 2.4405, 4.0421, 5.1093, 2.7243, 3.4583, 5.4932, 2.8911, 3.0411, 3.4748, 2.9078, 3.0753, 2.9079]""","""[0.9605, 0.9764, 0.7932, 0.7936, 0.9937, 0.9434, 0.8104, 0.9265, 0.8434, 1.0106, 0.8102, 0.7763, 0.8434, 0.977, 0.9437, 0.9928, 0.7433, 0.9772]""","""[""human_049.jpg"", ""social_045.jpg"", ""nature_037.jpg"", ""social_113.jpg"", ""human_012.jpg"", ""nature_106.jpg"", ""nature_049.jpg"", ""human_086.jpg"", ""human_116.jpg"", ""nature_097.jpg"", ""nature_113.jpg"", ""social_037.jpg"", ""nature_112.jpg"", ""social_118.jpg"", ""social_119.jpg"", ""social_003.jpg"", ""human_047.jpg"", ""human_098.jpg""]""",human_049.jpg,True,old,True,2.399521299998014,,003,24,23,003,/dss/studies/attentional-thief/data/sub-003/beh/attention_thief_ET_sub-003_2026-03-25_15h18.49.121.csv,80.0,88.38837250000142,False,True
,,time_estimation,2,passive,6,2,9,37.18637460000173,40.0,2.8136253999982728,1.0756628047305838,0,"""[2.091, 2.7912, 2.2082, 2.7244, 2.3078, 3.8255, 3.3079, 5.2429, 3.642]""","""[0.8272, 0.7767, 0.9767, 0.894, 0.86, 0.8763, 0.9937, 0.8934, 0.7603]""","""[""social_030.jpg"", ""nature_083.jpg"", ""nature_064.jpg"", ""human_016.jpg"", ""human_063.jpg"", ""human_101.jpg"", ""social_001.jpg"", ""nature_033.jpg"", ""social_081.jpg""]""",nature_060.jpg,False,new,True,1.499996700000338,,003,24,23,003,/dss/studies/attentional-thief/data/sub-003/beh/attention_thief_ET_sub-003_2026-03-25_15h18.49.121.csv,40.0,37.18637460000173,False,True
,,time_estimation,2,passive,6,3,12,63.23709130000134,70.0,6.762908699998661,1.1069452841832166,0,"""[4.9427, 5.5929, 3.9421, 2.3577, 5.9436, 3.7588, 4.2758, 5.393, 5.6432, 2.8247, 3.775, 2.9412]""","""[0.9938, 0.8262, 0.9773, 0.9268, 0.71, 0.8599, 0.8103, 0.7938, 0.9935, 0.9935, 0.827, 0.7266]""","""[""nature_095.jpg"", ""human_068.jpg"", ""social_086.jpg"", ""human_097.jpg"", ""human_073.jpg"", ""social_092.jpg"", ""nature_050.jpg"", ""social_117.jpg"", ""human_005.jpg"", ""nature_022.jpg"", ""social_098.jpg"", ""nature_116.jpg""]""",social_098.jpg,True,new,False,6.369756600000983,,003,24,23,003,/dss/studies/attentional-thief/data/sub-003/beh/attention_thief_ET_sub-003_2026-03-25_15h18.49.121.csv,70.0,63.23709130000134,False,True
,,time_estimation,3,active,7,1,9,47.76538849999997,40.0,-7.765388499999972,0.8374264557693281,0,"""[5.3096, 4.4921, 4.6926, 5.3271, 3.7753, 4.5926, 4.3092, 2.3248, 4.3755]""","""[0.7428, 0.8101, 0.7772, 0.9769, 0.8426, 0.9268, 0.9269, 0.9768, 0.7263]""","""[""human_050.jpg"", ""human_067.jpg"", ""human_004.jpg"", ""social_061.jpg"", ""nature_052.jpg"", ""social_062.jpg"", ""nature_066.jpg"", ""nature_105.jpg"", ""social_079.jpg""]""",human_015.jpg,False,new,True,2.1445763999981864,,003,24,23,003,/dss/studies/attentional-thief/data/sub-003/beh/attention_thief_ET_sub-003_2026-03-25_15h18.49.121.csv,40.0,47.76538849999997,False,True
,,time_estimation,3,active,7,2,12,58.27341160000287,50.0,-8.273411600002873,0.8580242451430034,0,"""[4.7761, 3.0415, 2.8915, 2.3578, 3.8587, 6.0438, 6.0273, 3.675, 3.1415, 3.9425, 3.3585, 3.1584]""","""[0.8097, 0.7598, 0.7432, 0.9099, 0.9767, 1.0102, 0.9603, 0.8097, 0.8101, 0.9604, 0.9432, 0.9935]""","""[""social_055.jpg"", ""social_111.jpg"", ""human_025.jpg"", ""nature_019.jpg"", ""social_026.jpg"", ""nature_010.jpg"", ""nature_024.jpg"", ""human_045.jpg"", ""nature_068.jpg"", ""social_109.jpg"", ""human_108.jpg"", ""human_044.jpg""]""",nature_077.jpg,False,new,True,1.9089633000003232,,003,24,23,003,/dss/studies/attentional-thief/data/sub-003/beh/attention_thief_ET_sub-003_2026-03-25_15h18.49.121.csv,50.0,58.27341160000287,False,True
,,time_estimation,3,active,7,3,18,106.13987899999849,90.0,-16.139878999998473,0.8479376540461413,0,"""[3.8258, 3.0583, 3.4048, 3.7757, 11.7141, 6.7607, 10.0795, 4.9762, 4.2422, 3.4752, 2.5414, 6.8944, 2.5747, 2.7581, 2.1244, 4.7261, 6.4103, 5.3599]""","""[0.9099, 0.7094, 0.7432, 0.9773, 0.7433, 0.9432, 0.877, 0.9438, 0.9768, 0.8771, 0.8433, 0.893, 0.7596, 0.86, 0.7931, 0.9265, 0.8432, 0.7269]""","""[""human_011.jpg"", ""social_069.jpg"", ""human_094.jpg"", ""social_073.jpg"", ""social_103.jpg"", ""nature_101.jpg"", ""human_032.jpg"", ""social_064.jpg"", ""nature_062.jpg"", ""social_040.jpg"", ""social_019.jpg"", ""nature_076.jpg"", ""nature_029.jpg"", ""nature_047.jpg"", ""nature_028.jpg"", ""human_084.jpg"", ""human_039.jpg"", ""human_120.jpg""]""",social_070.jpg,False,new,True,2.219149900000048,,003,24,23,003,/dss/studies/attentional-thief/data/sub-003/beh/attention_thief_ET_sub-003_2026-03-25_15h18.49.121.csv,90.0,106.13987899999849,False,True
,,time_estimation,3,passive,8,1,18,106.4670272000003,100.0,-6.467027200000302,0.9392579339343076,0,"""[3.7757, 4.7261, 3.4752, 4.9762, 6.8944, 3.4048, 2.5747, 4.2422, 3.8258, 2.5414, 5.3599, 2.7581, 10.0795, 2.1244, 11.7141, 6.4103, 6.7607, 3.0583]""","""[0.9773, 0.9265, 0.8771, 0.9438, 0.893, 0.7432, 0.7596, 0.9768, 0.9099, 0.8433, 0.7269, 0.86, 0.877, 0.7931, 0.7433, 0.8432, 0.9432, 0.7094]""","""[""human_040.jpg"", ""nature_056.jpg"", ""social_060.jpg"", ""human_056.jpg"", ""nature_051.jpg"", ""social_016.jpg"", ""human_079.jpg"", ""nature_032.jpg"", ""nature_018.jpg"", ""social_099.jpg"", ""social_034.jpg"", ""social_114.jpg"", ""human_107.jpg"", ""nature_002.jpg"", ""social_115.jpg"", ""human_057.jpg"", ""human_026.jpg"", ""nature_110.jpg""]""",social_114.jpg,True,new,False,1.9587932999966144,,003,24,23,003,/dss/studies/attentional-thief/data/sub-003/beh/attention_thief_ET_sub-003_2026-03-25_15h18.49.121.csv,100.0,106.4670272000003,False,True
,,time_estimation,3,passive,8,2,12,58.71623699999691,50.0,-8.716236999996909,0.851553208357045,0,"""[3.675, 3.8587, 3.1584, 2.8915, 6.0438, 6.0273, 3.3585, 3.9425, 4.7761, 3.0415, 2.3578, 3.1415]""","""[0.8097, 0.9767, 0.9935, 0.7432, 1.0102, 0.9603, 0.9432, 0.9604, 0.8097, 0.7598, 0.9099, 0.8101]""","""[""nature_014.jpg"", ""social_006.jpg"", ""social_052.jpg"", ""human_104.jpg"", ""nature_057.jpg"", ""nature_065.jpg"", ""human_095.jpg"", ""social_091.jpg"", ""social_005.jpg"", ""human_053.jpg"", ""nature_109.jpg"", ""human_007.jpg""]""",social_091.jpg,True,new,False,3.2375736000030884,,003,24,23,003,/dss/studies/attentional-thief/data/sub-003/beh/attention_thief_ET_sub-003_2026-03-25_15h18.49.121.csv,50.0,58.71623699999691,False,True
,,time_estimation,3,passive,8,3,9,48.07703269999911,40.0,-8.077032699999108,0.8319981029112211,0,"""[4.6926, 4.3092, 5.3096, 5.3271, 4.3755, 4.5926, 3.7753, 4.4921, 2.3248]""","""[0.7772, 0.9269, 0.7428, 0.9769, 0.7263, 0.9268, 0.8426, 0.8101, 0.9768]""","""[""human_062.jpg"", ""human_105.jpg"", ""social_112.jpg"", ""nature_054.jpg"", ""social_095.jpg"", ""human_102.jpg"", ""social_100.jpg"", ""nature_048.jpg"", ""nature_011.jpg""]""",social_112.jpg,True,old,True,4.664115200001106,,003,24,23,003,/dss/studies/attentional-thief/data/sub-003/beh/attention_thief_ET_sub-003_2026-03-25_15h18.49.121.csv,40.0,48.07703269999911,False,True
,,time_estimation,3,constant,9,1,18,106.25004559999796,110.0,3.749954400002025,1.0352936733233935,0,,,"[""social_032.jpg""]",social_011.jpg,False,new,True,2.612867200001346,social_032.jpg,003,24,23,003,/dss/studies/attentional-thief/data/sub-003/beh/attention_thief_ET_sub-003_2026-03-25_15h18.49.121.csv,110.0,106.25004559999796,False,True
,,time_estimation,3,constant,9,2,9,47.8936861000002,50.0,2.106313899999805,1.0439789473627463,0,,,"[""nature_090.jpg""]",nature_090.jpg,True,old,True,3.148665199998504,nature_090.jpg,003,24,23,003,/dss/studies/attentional-thief/data/sub-003/beh/attention_thief_ET_sub-003_2026-03-25_15h18.49.121.csv,50.0,47.8936861000002,False,True
,,time_estimation,3,constant,9,3,12,58.33924979999938,60.0,1.660750200000621,1.0284671161472605,0,,,"[""human_070.jpg""]",human_070.jpg,True,old,True,1.058342000000266,human_070.jpg,003,24,23,003,/dss/studies/attentional-thief/data/sub-003/beh/attention_thief_ET_sub-003_2026-03-25_15h18.49.121.csv,60.0,58.33924979999938,False,True
,,time_estimation,4,active,10,1,12,55.02053309999974,50.0,-5.020533099999739,0.9087516456651752,0,"""[7.5617, 3.2415, 3.1249, 2.7247, 2.0084, 3.9094, 3.4756, 4.0751, 2.7745, 4.1592, 2.508, 3.4419]""","""[0.8926, 0.993, 0.8103, 0.8266, 0.8598, 0.926, 0.8931, 0.7928, 0.9935, 1.0104, 0.8432, 0.8433]""","""[""human_114.jpg"", ""human_110.jpg"", ""nature_096.jpg"", ""human_077.jpg"", ""social_089.jpg"", ""nature_082.jpg"", ""nature_053.jpg"", ""nature_046.jpg"", ""social_047.jpg"", ""social_088.jpg"", ""social_065.jpg"", ""human_066.jpg""]""",social_071.jpg,False,new,True,1.1161279000007198,,003,24,23,003,/dss/studies/attentional-thief/data/sub-003/beh/attention_thief_ET_sub-003_2026-03-25_15h18.49.121.csv,50.0,55.02053309999974,False,True
,,time_estimation,4,active,10,2,18,79.63822470000014,90.0,10.361775299999865,1.1301105761590369,0,"""[7.1447, 3.1913, 7.6946, 5.5604, 6.3438, 1.6904, 2.1071, 1.7903, 1.457, 3.1417, 3.8085, 2.0572, 3.4589, 1.9909, 2.425, 1.9073, 3.1417, 3.5585]""","""[0.8767, 0.9266, 0.7269, 0.7936, 0.993, 0.7934, 0.7268, 0.8937, 0.9936, 0.8266, 0.7766, 0.9603, 0.8604, 0.7263, 0.8766, 0.9764, 0.8265, 0.7432]""","""[""nature_108.jpg"", ""human_089.jpg"", ""human_080.jpg"", ""human_100.jpg"", ""human_022.jpg"", ""social_068.jpg"", ""social_075.jpg"", ""nature_063.jpg"", ""nature_111.jpg"", ""social_107.jpg"", ""social_085.jpg"", ""nature_009.jpg"", ""social_080.jpg"", ""nature_085.jpg"", ""human_014.jpg"", ""nature_021.jpg"", ""social_038.jpg"", ""human_021.jpg""]""",nature_111.jpg,True,old,True,1.737170000000333,,003,24,23,003,/dss/studies/attentional-thief/data/sub-003/beh/attention_thief_ET_sub-003_2026-03-25_15h18.49.121.csv,90.0,79.63822470000014,False,True
,,time_estimation,4,active,10,3,9,32.438005500000145,30.0,-2.438005500000145,0.9248410787771728,0,"""[1.2737, 1.8068, 2.625, 3.5418, 2.8588, 3.0254, 2.6583, 2.6414, 3.3413]""","""[0.9094, 0.7098, 0.8769, 0.8762, 0.91, 0.8595, 0.8597, 0.9267, 0.8267]""","""[""human_033.jpg"", ""nature_003.jpg"", ""social_012.jpg"", ""social_059.jpg"", ""social_076.jpg"", ""nature_089.jpg"", ""nature_100.jpg"", ""human_074.jpg"", ""human_113.jpg""]""",nature_008.jpg,False,new,True,1.143630899998243,,003,24,23,003,/dss/studies/attentional-thief/data/sub-003/beh/attention_thief_ET_sub-003_2026-03-25_15h18.49.121.csv,30.0,32.438005500000145,False,True
,,time_estimation,4,constant,11,1,18,79.76519870000266,90.0,10.234801299997343,1.1283116129189434,0,,,"[""human_075.jpg""]",social_036.jpg,False,new,True,1.2877926000001023,human_075.jpg,003,24,23,003,/dss/studies/attentional-thief/data/sub-003/beh/attention_thief_ET_sub-003_2026-03-25_15h18.49.121.csv,90.0,79.76519870000266,False,True
,,time_estimation,4,constant,11,2,9,32.566209500000696,40.0,7.433790499999304,1.22826698636816,0,,,"[""nature_103.jpg""]",nature_103.jpg,True,old,True,1.0303862000000663,nature_103.jpg,003,24,23,003,/dss/studies/attentional-thief/data/sub-003/beh/attention_thief_ET_sub-003_2026-03-25_15h18.49.121.csv,40.0,32.566209500000696,False,True
,,time_estimation,4,constant,11,3,12,55.13184379999802,60.0,4.868156200001977,1.0883002610553385,0,,,"[""social_017.jpg""]",social_017.jpg,True,old,True,0.7723181999972439,social_017.jpg,003,24,23,003,/dss/studies/attentional-thief/data/sub-003/beh/attention_thief_ET_sub-003_2026-03-25_15h18.49.121.csv,60.0,55.13184379999802,False,True
,,time_estimation,4,passive,12,1,12,55.23171640000146,60.0,4.76828359999854,1.086332345087114,0,"""[2.7745, 3.2415, 3.9094, 2.0084, 3.4756, 3.1249, 3.4419, 4.0751, 4.1592, 2.508, 7.5617, 2.7247]""","""[0.9935, 0.993, 0.926, 0.8598, 0.8931, 0.8103, 0.8433, 0.7928, 1.0104, 0.8432, 0.8926, 0.8266]""","""[""human_112.jpg"", ""social_021.jpg"", ""human_048.jpg"", ""nature_115.jpg"", ""nature_092.jpg"", ""human_081.jpg"", ""social_082.jpg"", ""social_009.jpg"", ""nature_027.jpg"", ""nature_045.jpg"", ""human_041.jpg"", ""social_110.jpg""]""",human_048.jpg,True,old,True,1.1304668000011588,,003,24,23,003,/dss/studies/attentional-thief/data/sub-003/beh/attention_thief_ET_sub-003_2026-03-25_15h18.49.121.csv,60.0,55.23171640000146,False,True
,,time_estimation,4,passive,12,2,9,32.78175040000133,35.0,2.2182495999986718,1.067667210351238,0,"""[2.8588, 1.2737, 1.8068, 2.6583, 3.3413, 2.6414, 3.5418, 2.625, 3.0254]""","""[0.91, 0.9094, 0.7098, 0.8597, 0.8267, 0.9267, 0.8762, 0.8769, 0.8595]""","""[""nature_061.jpg"", ""human_092.jpg"", ""human_030.jpg"", ""nature_055.jpg"", ""social_023.jpg"", ""human_009.jpg"", ""social_066.jpg"", ""social_102.jpg"", ""nature_067.jpg""]""",social_066.jpg,True,old,True,9.473699999998644,,003,24,23,003,/dss/studies/attentional-thief/data/sub-003/beh/attention_thief_ET_sub-003_2026-03-25_15h18.49.121.csv,35.0,32.78175040000133,False,True
,,time_estimation,4,passive,12,3,18,79.99817229999826,60.0,-19.99817229999826,0.7500171350789886,0,"""[3.1417, 6.3438, 1.7903, 3.1417, 1.6904, 3.1913, 1.9073, 5.5604, 2.425, 2.0572, 7.6946, 1.457, 7.1447, 2.1071, 3.8085, 3.4589, 1.9909, 3.5585]""","""[0.8266, 0.993, 0.8937, 0.8265, 0.7934, 0.9266, 0.9764, 0.7936, 0.8766, 0.9603, 0.7269, 0.9936, 0.8767, 0.7268, 0.7766, 0.8604, 0.7263, 0.7432]""","""[""social_041.jpg"", ""nature_080.jpg"", ""social_008.jpg"", ""social_096.jpg"", ""nature_058.jpg"", ""human_010.jpg"", ""human_051.jpg"", ""human_071.jpg"", ""nature_078.jpg"", ""social_054.jpg"", ""human_099.jpg"", ""nature_099.jpg"", ""social_090.jpg"", ""human_027.jpg"", ""nature_026.jpg"", ""nature_119.jpg"", ""human_034.jpg"", ""social_051.jpg""]""",social_049.jpg,False,new,True,2.1487168000021484,,003,24,23,003,/dss/studies/attentional-thief/data/sub-003/beh/attention_thief_ET_sub-003_2026-03-25_15h18.49.121.csv,60.0,79.99817229999826,False,True
,,time_estimation,1,active,1,1,18,193.99970490000032,120.0,-73.99970490000032,0.6185576419399996,0,"""[11.1131, 10.0128, 11.4131, 12.1807, 9.8126, 9.3797, 9.5289, 9.1283, 8.5449, 14.4325, 13.7655, 9.4808, 7.6115, 7.995, 5.8759, 7.9789, 9.1631, 8.661]""","""[0.9098, 0.9942, 0.8273, 0.8609, 0.7772, 0.7269, 0.8094, 0.9938, 0.8776, 0.8605, 0.9772, 0.9767, 0.7418, 0.9101, 0.96, 0.7441, 0.9763, 1.0096]""","""[""human_088.jpg"", ""social_014.jpg"", ""nature_067.jpg"", ""human_065.jpg"", ""nature_117.jpg"", ""social_024.jpg"", ""social_099.jpg"", ""social_078.jpg"", ""human_044.jpg"", ""social_047.jpg"", ""human_087.jpg"", ""social_092.jpg"", ""nature_037.jpg"", ""nature_046.jpg"", ""nature_043.jpg"", ""human_112.jpg"", ""human_032.jpg"", ""nature_106.jpg""]""",human_112.jpg,True,old,True,5.793808800000079,,04,24,23,004,/dss/studies/attentional-thief/data/sub-004/beh/attention_thief_ET_sub-004_2026-03-26_06h53.33.438.csv,120.0,193.99970490000032,False,True
,,time_estimation,1,active,1,2,9,84.0407323999998,45.0,-39.0407323999998,0.5354546386604325,0,"""[9.346, 11.8859, 6.5603, 5.8937, 9.7623, 7.8115, 7.1269, 7.8109, 9.2617]""","""[0.7268, 0.8765, 0.7218, 0.8103, 0.7769, 0.9941, 0.9603, 0.8944, 0.8606]""","""[""social_066.jpg"", ""social_112.jpg"", ""human_004.jpg"", ""nature_094.jpg"", ""nature_051.jpg"", ""nature_104.jpg"", ""human_093.jpg"", ""human_114.jpg"", ""social_075.jpg""]""",nature_071.jpg,False,new,True,2.993492700000388,,04,24,23,004,/dss/studies/attentional-thief/data/sub-004/beh/attention_thief_ET_sub-004_2026-03-26_06h53.33.438.csv,45.0,84.0407323999998,False,True
,,time_estimation,1,active,1,3,12,126.78817589999926,90.0,-36.78817589999926,0.7098453728917519,0,"""[7.0274, 12.0148, 10.997, 10.1132, 13.1652, 9.0791, 8.1778, 9.1295, 7.3953, 8.4448, 10.7636, 8.6122]""","""[0.7437, 0.7769, 0.9599, 0.8268, 0.91, 0.9937, 0.8934, 0.7775, 0.9765, 0.9761, 0.8606, 0.8098]""","""[""nature_035.jpg"", ""human_105.jpg"", ""social_044.jpg"", ""human_062.jpg"", ""human_108.jpg"", ""social_050.jpg"", ""nature_058.jpg"", ""nature_034.jpg"", ""nature_006.jpg"", ""social_084.jpg"", ""social_087.jpg"", ""human_006.jpg""]""",nature_058.jpg,True,old,True,4.4101849999997285,,04,24,23,004,/dss/studies/attentional-thief/data/sub-004/beh/attention_thief_ET_sub-004_2026-03-26_06h53.33.438.csv,90.0,126.78817589999926,False,True
,,time_estimation,1,passive,2,1,12,126.9979857999997,95.0,-31.997985799999697,0.7480433599128801,0,"""[12.0148, 10.1132, 9.0791, 10.997, 10.7636, 8.1778, 9.1295, 7.0274, 13.1652, 8.4448, 7.3953, 8.6122]""","""[0.7769, 0.8268, 0.9937, 0.9599, 0.8606, 0.8934, 0.7775, 0.7437, 0.91, 0.9761, 0.9765, 0.8098]""","""[""human_086.jpg"", ""human_058.jpg"", ""human_118.jpg"", ""nature_112.jpg"", ""social_065.jpg"", ""nature_064.jpg"", ""social_049.jpg"", ""social_111.jpg"", ""social_064.jpg"", ""nature_031.jpg"", ""nature_118.jpg"", ""human_042.jpg""]""",social_065.jpg,True,old,True,3.072060100000272,,04,24,23,004,/dss/studies/attentional-thief/data/sub-004/beh/attention_thief_ET_sub-004_2026-03-26_06h53.33.438.csv,95.0,126.9979857999997,False,True
,,time_estimation,1,passive,2,2,18,194.54431710000063,120.0,-74.54431710000063,0.6168260362923734,0,"""[10.0128, 12.1807, 13.7655, 9.1283, 11.4131, 9.1631, 9.5289, 9.4808, 7.995, 8.661, 9.8126, 14.4325, 9.3797, 8.5449, 7.9789, 11.1131, 7.6115, 5.8759]""","""[0.9942, 0.8609, 0.9772, 0.9938, 0.8273, 0.9763, 0.8094, 0.9767, 0.9101, 1.0096, 0.7772, 0.8605, 0.7269, 0.8776, 0.7441, 0.9098, 0.7418, 0.96]""","""[""human_017.jpg"", ""human_066.jpg"", ""social_038.jpg"", ""nature_072.jpg"", ""nature_033.jpg"", ""social_085.jpg"", ""nature_019.jpg"", ""human_053.jpg"", ""social_097.jpg"", ""human_083.jpg"", ""social_115.jpg"", ""nature_059.jpg"", ""nature_018.jpg"", ""human_045.jpg"", ""social_116.jpg"", ""nature_109.jpg"", ""social_080.jpg"", ""human_046.jpg""]""",human_111.jpg,False,new,True,3.1239975999997114,,04,24,23,004,/dss/studies/attentional-thief/data/sub-004/beh/attention_thief_ET_sub-004_2026-03-26_06h53.33.438.csv,120.0,194.54431710000063,False,True
,,time_estimation,1,passive,2,3,9,84.11905089999982,35.0,-49.11905089999982,0.4160769721665996,0,"""[5.8937, 7.8109, 7.8115, 9.7623, 9.2617, 6.5603, 9.346, 7.1269, 11.8859]""","""[0.8103, 0.8944, 0.9941, 0.7769, 0.8606, 0.7218, 0.7268, 0.9603, 0.8765]""","""[""social_073.jpg"", ""nature_032.jpg"", ""human_040.jpg"", ""social_083.jpg"", ""human_081.jpg"", ""nature_004.jpg"", ""nature_090.jpg"", ""human_009.jpg"", ""social_045.jpg""]""",social_045.jpg,True,old,True,2.382815599999958,,04,24,23,004,/dss/studies/attentional-thief/data/sub-004/beh/attention_thief_ET_sub-004_2026-03-26_06h53.33.438.csv,35.0,84.11905089999982,False,True
,,time_estimation,1,constant,3,1,9,84.16851059999954,90.0,5.831489400000464,1.0692835047030105,0,,,"[""social_059.jpg""]",nature_100.jpg,False,new,True,3.409043399999973,social_059.jpg,04,24,23,004,/dss/studies/attentional-thief/data/sub-004/beh/attention_thief_ET_sub-004_2026-03-26_06h53.33.438.csv,90.0,84.16851059999954,False,True
,,time_estimation,1,constant,3,2,12,126.91511879999962,115.0,-11.915118799999618,0.9061174199523372,0,,,"[""nature_056.jpg""]",social_071.jpg,False,new,True,2.2052567999999155,nature_056.jpg,04,24,23,004,/dss/studies/attentional-thief/data/sub-004/beh/attention_thief_ET_sub-004_2026-03-26_06h53.33.438.csv,115.0,126.91511879999962,False,True
,,time_estimation,1,constant,3,3,18,194.1121721999998,120.0,-74.1121721999998,0.618199253761172,0,,,"[""human_048.jpg""]",human_048.jpg,True,old,True,1.6302404999996725,human_048.jpg,04,24,23,004,/dss/studies/attentional-thief/data/sub-004/beh/attention_thief_ET_sub-004_2026-03-26_06h53.33.438.csv,120.0,194.1121721999998,False,True
,,time_estimation,2,active,4,1,9,75.41919129999951,38.0,-37.41919129999951,0.5038505365145733,0,"""[10.2972, 6.2931, 8.5945, 8.3615, 7.6449, 6.4269, 6.8275, 5.8101, 6.2772]""","""[0.7933, 0.993, 0.9443, 0.8943, 0.7437, 0.9934, 0.8604, 0.8434, 0.8769]""","""[""human_117.jpg"", ""nature_017.jpg"", ""social_027.jpg"", ""nature_078.jpg"", ""social_028.jpg"", ""human_036.jpg"", ""nature_079.jpg"", ""social_022.jpg"", ""human_043.jpg""]""",social_022.jpg,True,old,True,1.644481899999846,,04,24,23,004,/dss/studies/attentional-thief/data/sub-004/beh/attention_thief_ET_sub-004_2026-03-26_06h53.33.438.csv,38.0,75.41919129999951,False,True
,,time_estimation,2,active,4,2,12,104.57150450000064,55.0,-49.57150450000063,0.525955902260158,0,"""[10.8466, 10.5628, 6.8108, 8.5284, 6.7105, 7.1277, 6.227, 8.3117, 7.1613, 6.9445, 6.4435, 7.128]""","""[0.9758, 0.7771, 0.9941, 0.7771, 0.8103, 0.9103, 0.7268, 0.7934, 1.0104, 0.81, 1.01, 0.9437]""","""[""nature_040.jpg"", ""human_120.jpg"", ""nature_009.jpg"", ""social_052.jpg"", ""social_051.jpg"", ""human_104.jpg"", ""human_008.jpg"", ""social_118.jpg"", ""social_060.jpg"", ""nature_011.jpg"", ""nature_107.jpg"", ""human_113.jpg""]""",social_051.jpg,True,old,True,2.1828142000003936,,04,24,23,004,/dss/studies/attentional-thief/data/sub-004/beh/attention_thief_ET_sub-004_2026-03-26_06h53.33.438.csv,55.0,104.57150450000064,False,True
,,time_estimation,2,active,4,3,18,182.4592775000001,120.0,-62.4592775000001,0.6576809995315253,0,"""[6.8266, 6.8772, 9.496, 10.1294, 9.412, 8.4453, 9.9789, 8.8118, 11.4812, 9.3458, 6.5943, 10.5463, 6.7445, 6.2102, 8.4285, 9.6126, 6.594, 18.9357]""","""[0.7929, 0.9092, 0.7603, 0.9098, 0.927, 0.8937, 0.8097, 0.9939, 0.8273, 0.9596, 0.81, 0.8266, 0.777, 0.8931, 0.9271, 0.9436, 0.9103, 0.7937]""","""[""nature_049.jpg"", ""nature_098.jpg"", ""social_103.jpg"", ""social_006.jpg"", ""human_001.jpg"", ""nature_055.jpg"", ""social_067.jpg"", ""nature_111.jpg"", ""nature_075.jpg"", ""nature_010.jpg"", ""social_109.jpg"", ""human_109.jpg"", ""human_038.jpg"", ""human_050.jpg"", ""social_119.jpg"", ""social_117.jpg"", ""human_115.jpg"", ""human_013.jpg""]""",nature_103.jpg,False,new,True,1.8650675999997477,,04,24,23,004,/dss/studies/attentional-thief/data/sub-004/beh/attention_thief_ET_sub-004_2026-03-26_06h53.33.438.csv,120.0,182.4592775000001,False,True
,,time_estimation,2,constant,5,1,12,104.68196129999978,90.0,-14.681961299999784,0.8597469791579094,0,,,"[""social_025.jpg""]",human_052.jpg,False,new,True,1.2853716000008717,social_025.jpg,04,24,23,004,/dss/studies/attentional-thief/data/sub-004/beh/attention_thief_ET_sub-004_2026-03-26_06h53.33.438.csv,90.0,104.68196129999978,False,True
,,time_estimation,2,constant,5,2,9,75.56222230000003,80.0,4.43777769999997,1.0587301109591634,0,,,"[""nature_022.jpg""]",human_067.jpg,False,new,True,1.3025841999997283,nature_022.jpg,04,24,23,004,/dss/studies/attentional-thief/data/sub-004/beh/attention_thief_ET_sub-004_2026-03-26_06h53.33.438.csv,80.0,75.56222230000003,False,True
,,time_estimation,2,constant,5,3,18,182.58660320000035,120.0,-62.586603200000354,0.6572223695325297,0,,,"[""human_047.jpg""]",nature_091.jpg,False,new,True,1.1973920999998882,human_047.jpg,04,24,23,004,/dss/studies/attentional-thief/data/sub-004/beh/attention_thief_ET_sub-004_2026-03-26_06h53.33.438.csv,120.0,182.58660320000035,False,True
,,time_estimation,2,passive,6,1,9,75.54666220000036,35.0,-40.54666220000036,0.4632898261916836,0,"""[6.4269, 6.2772, 10.2972, 8.5945, 6.8275, 7.6449, 6.2931, 8.3615, 5.8101]""","""[0.9934, 0.8769, 0.7933, 0.9443, 0.8604, 0.7437, 0.993, 0.8943, 0.8434]""","""[""nature_087.jpg"", ""social_057.jpg"", ""human_011.jpg"", ""human_003.jpg"", ""nature_025.jpg"", ""nature_021.jpg"", ""human_027.jpg"", ""social_054.jpg"", ""social_086.jpg""]""",social_057.jpg,True,old,True,1.9298675000000003,,04,24,23,004,/dss/studies/attentional-thief/data/sub-004/beh/attention_thief_ET_sub-004_2026-03-26_06h53.33.438.csv,35.0,75.54666220000036,False,True
,,time_estimation,2,passive,6,2,12,104.99968850000003,60.0,-44.99968850000005,0.5714302666716956,0,"""[6.4435, 6.227, 10.8466, 6.8108, 6.7105, 7.1613, 7.128, 7.1277, 10.5628, 6.9445, 8.5284, 8.3117]""","""[1.01, 0.7268, 0.9758, 0.9941, 0.8103, 1.0104, 0.9437, 0.9103, 0.7771, 0.81, 0.7771, 0.7934]""","""[""social_068.jpg"", ""nature_039.jpg"", ""human_072.jpg"", ""human_035.jpg"", ""human_059.jpg"", ""social_053.jpg"", ""nature_029.jpg"", ""social_012.jpg"", ""social_056.jpg"", ""nature_005.jpg"", ""human_031.jpg"", ""nature_047.jpg""]""",social_120.jpg,False,new,True,3.8411707000004753,,04,24,23,004,/dss/studies/attentional-thief/data/sub-004/beh/attention_thief_ET_sub-004_2026-03-26_06h53.33.438.csv,60.0,104.99968850000003,False,True
,,time_estimation,2,passive,6,3,18,182.5690746,115.0,-67.56907460000002,0.6298985753855598,0,"""[9.3458, 10.1294, 10.5463, 6.8266, 6.594, 9.412, 8.4285, 9.6126, 9.496, 6.7445, 8.4453, 18.9357, 11.4812, 6.8772, 9.9789, 6.2102, 6.5943, 8.8118]""","""[0.9596, 0.9098, 0.8266, 0.7929, 0.9103, 0.927, 0.9271, 0.9436, 0.7603, 0.777, 0.8937, 0.7937, 0.8273, 0.9092, 0.8097, 0.8931, 0.81, 0.9939]""","""[""nature_099.jpg"", ""human_041.jpg"", ""social_081.jpg"", ""human_039.jpg"", ""social_036.jpg"", ""nature_016.jpg"", ""nature_014.jpg"", ""human_102.jpg"", ""nature_076.jpg"", ""human_024.jpg"", ""social_046.jpg"", ""human_074.jpg"", ""social_077.jpg"", ""nature_069.jpg"", ""social_032.jpg"", ""human_080.jpg"", ""nature_115.jpg"", ""social_037.jpg""]""",social_018.jpg,False,new,True,3.0950306000004275,,04,24,23,004,/dss/studies/attentional-thief/data/sub-004/beh/attention_thief_ET_sub-004_2026-03-26_06h53.33.438.csv,115.0,182.5690746,False,True
,,time_estimation,3,active,7,1,12,110.25872400000117,75.0,-35.258724000001166,0.6802182836797496,0,"""[8.5616, 14.2163, 7.7444, 6.2264, 6.76, 10.4474, 8.2451, 6.2768, 7.4444, 7.8783, 7.8275, 7.0773]""","""[1.0097, 0.8937, 0.9429, 0.9434, 0.7774, 0.9443, 0.742, 0.7267, 0.9104, 0.7103, 0.8264, 0.9777]""","""[""nature_045.jpg"", ""social_043.jpg"", ""nature_024.jpg"", ""nature_015.jpg"", ""human_073.jpg"", ""social_104.jpg"", ""human_082.jpg"", ""human_012.jpg"", ""human_089.jpg"", ""social_004.jpg"", ""nature_054.jpg"", ""social_110.jpg""]""",nature_070.jpg,False,new,True,1.4178019999999378,,04,24,23,004,/dss/studies/attentional-thief/data/sub-004/beh/attention_thief_ET_sub-004_2026-03-26_06h53.33.438.csv,75.0,110.25872400000117,False,True
,,time_estimation,3,active,7,2,18,169.93481389999943,115.0,-54.93481389999943,0.676730078791703,0,"""[6.2934, 8.5289, 7.444, 12.2807, 8.4951, 7.995, 9.1118, 12.3807, 7.495, 8.1783, 9.5453, 6.3262, 8.5613, 13.2491, 5.5432, 5.4428, 6.7939, 8.6457]""","""[0.7769, 0.9606, 0.8929, 0.9104, 0.8106, 0.9934, 0.9766, 0.8775, 0.8104, 0.793, 0.7436, 0.8609, 0.9609, 0.9107, 0.9931, 0.9601, 0.8439, 0.7771]""","""[""social_019.jpg"", ""human_034.jpg"", ""human_110.jpg"", ""human_015.jpg"", ""nature_003.jpg"", ""human_057.jpg"", ""nature_085.jpg"", ""social_034.jpg"", ""nature_105.jpg"", ""social_008.jpg"", ""human_028.jpg"", ""social_016.jpg"", ""nature_096.jpg"", ""social_033.jpg"", ""social_001.jpg"", ""nature_102.jpg"", ""nature_120.jpg"", ""human_100.jpg""]""",nature_003.jpg,True,old,True,2.926997200000187,,04,24,23,004,/dss/studies/attentional-thief/data/sub-004/beh/attention_thief_ET_sub-004_2026-03-26_06h53.33.438.csv,115.0,169.93481389999943,False,True
,,time_estimation,3,active,7,3,9,85.70989670000017,40.0,-45.70989670000017,0.4666905636347584,0,"""[5.6425, 12.9645, 5.5432, 8.5294, 8.2789, 6.9941, 9.1617, 9.7458, 10.4969]""","""[0.8271, 0.8109, 0.9939, 0.8434, 0.8263, 0.7931, 0.8101, 0.7608, 0.7936]""","""[""nature_030.jpg"", ""social_100.jpg"", ""social_058.jpg"", ""nature_063.jpg"", ""human_030.jpg"", ""nature_053.jpg"", ""human_019.jpg"", ""social_007.jpg"", ""human_084.jpg""]""",social_100.jpg,True,old,True,4.64659120000033,,04,24,23,004,/dss/studies/attentional-thief/data/sub-004/beh/attention_thief_ET_sub-004_2026-03-26_06h53.33.438.csv,40.0,85.70989670000017,False,True
,,time_estimation,3,passive,8,1,9,85.86921099999927,45.0,-40.86921099999927,0.5240527946623428,0,"""[10.4969, 9.1617, 5.6425, 6.9941, 9.7458, 8.5294, 5.5432, 12.9645, 8.2789]""","""[0.7936, 0.8101, 0.8271, 0.7931, 0.7608, 0.8434, 0.9939, 0.8109, 0.8263]""","""[""nature_073.jpg"", ""nature_036.jpg"", ""social_026.jpg"", ""nature_110.jpg"", ""social_035.jpg"", ""human_071.jpg"", ""human_033.jpg"", ""social_072.jpg"", ""human_002.jpg""]""",social_035.jpg,True,old,True,0.9790386999993644,,04,24,23,004,/dss/studies/attentional-thief/data/sub-004/beh/attention_thief_ET_sub-004_2026-03-26_06h53.33.438.csv,45.0,85.86921099999927,False,True
,,time_estimation,3,passive,8,2,12,110.75398909999969,75.0,-35.75398909999967,0.6771765117397494,0,"""[8.5616, 7.7444, 10.4474, 7.4444, 6.76, 7.8275, 6.2264, 7.0773, 7.8783, 14.2163, 8.2451, 6.2768]""","""[1.0097, 0.9429, 0.9443, 0.9104, 0.7774, 0.8264, 0.9434, 0.9777, 0.7103, 0.8937, 0.742, 0.7267]""","""[""human_078.jpg"", ""nature_044.jpg"", ""social_029.jpg"", ""human_051.jpg"", ""social_106.jpg"", ""social_094.jpg"", ""nature_082.jpg"", ""human_037.jpg"", ""human_076.jpg"", ""nature_023.jpg"", ""nature_081.jpg"", ""social_015.jpg""]""",social_017.jpg,False,new,True,1.1773875999988377,,04,24,23,004,/dss/studies/attentional-thief/data/sub-004/beh/attention_thief_ET_sub-004_2026-03-26_06h53.33.438.csv,75.0,110.75398909999969,False,True
,,time_estimation,3,passive,8,3,18,170.3285281999997,120.0,-50.32852819999971,0.7045208531309332,0,"""[13.2491, 6.7939, 7.444, 12.3807, 8.5613, 9.1118, 12.2807, 6.3262, 7.995, 7.495, 5.4428, 8.6457, 5.5432, 9.5453, 6.2934, 8.4951, 8.5289, 8.1783]""","""[0.9107, 0.8439, 0.8929, 0.8775, 0.9609, 0.9766, 0.9104, 0.8609, 0.9934, 0.8104, 0.9601, 0.7771, 0.9931, 0.7436, 0.7769, 0.8106, 0.9606, 0.793]""","""[""nature_088.jpg"", ""social_113.jpg"", ""nature_057.jpg"", ""human_049.jpg"", ""social_020.jpg"", ""social_003.jpg"", ""nature_068.jpg"", ""social_055.jpg"", ""human_022.jpg"", ""social_114.jpg"", ""nature_026.jpg"", ""nature_080.jpg"", ""human_025.jpg"", ""nature_048.jpg"", ""social_070.jpg"", ""human_090.jpg"", ""human_014.jpg"", ""human_107.jpg""]""",nature_002.jpg,False,new,True,1.1767120999993494,,04,24,23,004,/dss/studies/attentional-thief/data/sub-004/beh/attention_thief_ET_sub-004_2026-03-26_06h53.33.438.csv,120.0,170.3285281999997,False,True
,,time_estimation,3,constant,9,1,18,170.04541149999932,120.0,-50.04541149999932,0.7056938434354665,0,,,"[""nature_093.jpg""]",nature_093.jpg,True,old,True,1.0963768999990862,nature_093.jpg,04,24,23,004,/dss/studies/attentional-thief/data/sub-004/beh/attention_thief_ET_sub-004_2026-03-26_06h53.33.438.csv,120.0,170.04541149999932,False,True
,,time_estimation,3,constant,9,2,9,85.8187797999999,115.0,29.181220200000094,1.3400330355198098,0,,,"[""human_020.jpg""]",human_064.jpg,False,new,True,0.9405514000009134,human_020.jpg,04,24,23,004,/dss/studies/attentional-thief/data/sub-004/beh/attention_thief_ET_sub-004_2026-03-26_06h53.33.438.csv,115.0,85.8187797999999,False,True
,,time_estimation,3,constant,9,3,12,110.38665000000036,120.0,9.613349999999627,1.0870879766710884,0,,,"[""social_010.jpg""]",social_010.jpg,True,old,True,1.083258200000273,social_010.jpg,04,24,23,004,/dss/studies/attentional-thief/data/sub-004/beh/attention_thief_ET_sub-004_2026-03-26_06h53.33.438.csv,120.0,110.38665000000036,False,True
,,time_estimation,4,active,10,1,9,76.35186339999927,40.0,-36.35186339999928,0.5238902918510877,0,"""[5.8103, 6.8773, 5.7434, 8.0121, 13.7156, 6.8939, 7.3278, 6.5277, 6.1938]""","""[0.9923, 0.8097, 0.8604, 0.8602, 0.8431, 0.9768, 0.9439, 0.8599, 0.9267]""","""[""social_042.jpg"", ""social_021.jpg"", ""nature_042.jpg"", ""nature_065.jpg"", ""social_088.jpg"", ""human_092.jpg"", ""human_103.jpg"", ""human_097.jpg"", ""nature_077.jpg""]""",human_092.jpg,True,old,True,0.9973025999988748,,04,24,23,004,/dss/studies/attentional-thief/data/sub-004/beh/attention_thief_ET_sub-004_2026-03-26_06h53.33.438.csv,40.0,76.35186339999927,False,True
,,time_estimation,4,active,10,2,12,86.24292220000098,58.0,-28.242922200000976,0.6725189559961287,0,"""[11.9983, 6.2268, 8.1281, 5.3095, 7.0276, 3.4747, 6.9774, 4.8259, 4.6262, 4.6261, 4.2589, 6.7609]""","""[0.843, 0.9927, 0.877, 0.977, 0.8605, 1.0104, 0.8938, 0.8265, 0.7937, 0.8433, 0.9769, 0.9104]""","""[""human_075.jpg"", ""human_085.jpg"", ""human_106.jpg"", ""nature_089.jpg"", ""social_091.jpg"", ""nature_052.jpg"", ""social_005.jpg"", ""nature_119.jpg"", ""nature_060.jpg"", ""social_013.jpg"", ""social_095.jpg"", ""human_091.jpg""]""",human_007.jpg,False,new,True,1.832339000000502,,04,24,23,004,/dss/studies/attentional-thief/data/sub-004/beh/attention_thief_ET_sub-004_2026-03-26_06h53.33.438.csv,58.0,86.24292220000098,False,True
,,time_estimation,4,active,10,3,18,121.69889839999996,70.0,-51.69889839999996,0.5751900873410044,0,"""[11.2307, 10.6131, 6.5601, 7.8783, 6.3441, 5.3423, 5.1095, 4.3588, 5.3262, 4.3755, 6.5774, 2.0568, 5.0762, 5.1425, 4.0915, 5.4268, 5.7598, 3.6249]""","""[0.7418, 0.9099, 0.8105, 0.7605, 0.8599, 0.9767, 0.9277, 0.8769, 0.9774, 0.7437, 0.8438, 0.76, 0.7608, 0.9099, 0.894, 0.7276, 0.8933, 0.7105]""","""[""social_009.jpg"", ""nature_013.jpg"", ""human_029.jpg"", ""nature_041.jpg"", ""human_101.jpg"", ""social_061.jpg"", ""social_076.jpg"", ""human_098.jpg"", ""nature_038.jpg"", ""nature_116.jpg"", ""social_079.jpg"", ""nature_050.jpg"", ""social_023.jpg"", ""human_099.jpg"", ""nature_028.jpg"", ""social_105.jpg"", ""human_094.jpg"", ""human_056.jpg""]""",social_011.jpg,False,new,True,1.0396885000009206,,04,24,23,004,/dss/studies/attentional-thief/data/sub-004/beh/attention_thief_ET_sub-004_2026-03-26_06h53.33.438.csv,70.0,121.69889839999996,False,True
,,time_estimation,4,constant,11,1,9,76.46264979999978,60.0,-16.46264979999978,0.7846968442362322,0,,,"[""social_108.jpg""]",human_055.jpg,False,new,True,0.8368188000004011,social_108.jpg,04,24,23,004,/dss/studies/attentional-thief/data/sub-004/beh/attention_thief_ET_sub-004_2026-03-26_06h53.33.438.csv,60.0,76.46264979999978,False,True
,,time_estimation,4,constant,11,2,12,86.33711390000099,90.0,3.662886099999014,1.0424253943007813,0,,,"[""human_026.jpg""]",social_098.jpg,False,new,True,0.7873507000003883,human_026.jpg,04,24,23,004,/dss/studies/attentional-thief/data/sub-004/beh/attention_thief_ET_sub-004_2026-03-26_06h53.33.438.csv,90.0,86.33711390000099,False,True
,,time_estimation,4,constant,11,3,18,121.82770179999898,112.0,-9.827701799998977,0.919331140169312,0,,,"[""nature_074.jpg""]",nature_074.jpg,True,old,True,0.874280699999872,nature_074.jpg,04,24,23,004,/dss/studies/attentional-thief/data/sub-004/beh/attention_thief_ET_sub-004_2026-03-26_06h53.33.438.csv,112.0,121.82770179999898,False,True
,,time_estimation,4,passive,12,1,18,122.16145379999944,115.0,-7.161453799999435,0.9413771400287684,0,"""[4.3755, 5.3423, 7.8783, 4.3588, 5.0762, 3.6249, 5.1095, 5.7598, 5.4268, 6.5774, 5.3262, 10.6131, 2.0568, 11.2307, 5.1425, 6.3441, 4.0915, 6.5601]""","""[0.7437, 0.9767, 0.7605, 0.8769, 0.7608, 0.7105, 0.9277, 0.8933, 0.7276, 0.8438, 0.9774, 0.9099, 0.76, 0.7418, 0.9099, 0.8599, 0.894, 0.8105]""","""[""human_016.jpg"", ""human_070.jpg"", ""nature_027.jpg"", ""human_119.jpg"", ""nature_086.jpg"", ""nature_007.jpg"", ""human_061.jpg"", ""human_010.jpg"", ""social_069.jpg"", ""social_093.jpg"", ""nature_084.jpg"", ""social_063.jpg"", ""nature_108.jpg"", ""social_096.jpg"", ""human_023.jpg"", ""social_040.jpg"", ""nature_061.jpg"", ""social_048.jpg""]""",social_063.jpg,True,old,True,1.1159397999999785,,04,24,23,004,/dss/studies/attentional-thief/data/sub-004/beh/attention_thief_ET_sub-004_2026-03-26_06h53.33.438.csv,115.0,122.16145379999944,False,True
,,time_estimation,4,passive,12,2,12,86.52038489999904,60.0,-26.520384899999044,0.6934781909413427,0,"""[6.9774, 7.0276, 4.2589, 6.7609, 4.6262, 3.4747, 5.3095, 11.9983, 6.2268, 4.6261, 8.1281, 4.8259]""","""[0.8938, 0.8605, 0.9769, 0.9104, 0.7937, 1.0104, 0.977, 0.843, 0.9927, 0.8433, 0.877, 0.8265]""","""[""human_069.jpg"", ""social_062.jpg"", ""human_063.jpg"", ""nature_020.jpg"", ""nature_092.jpg"", ""social_107.jpg"", ""human_021.jpg"", ""human_096.jpg"", ""social_002.jpg"", ""social_074.jpg"", ""nature_062.jpg"", ""nature_083.jpg""]""",nature_062.jpg,True,old,True,1.0295978000012838,,04,24,23,004,/dss/studies/attentional-thief/data/sub-004/beh/attention_thief_ET_sub-004_2026-03-26_06h53.33.438.csv,60.0,86.52038489999904,False,True
,,time_estimation,4,passive,12,3,9,76.22904000000017,55.0,-21.229040000000168,0.721509807810775,0,"""[5.8103, 6.1938, 8.0121, 7.3278, 13.7156, 6.8939, 5.7434, 6.5277, 6.8773]""","""[0.9923, 0.9267, 0.8602, 0.9439, 0.8431, 0.9768, 0.8604, 0.8599, 0.8097]""","""[""social_039.jpg"", ""human_095.jpg"", ""nature_066.jpg"", ""nature_095.jpg"", ""social_041.jpg"", ""social_101.jpg"", ""human_116.jpg"", ""human_018.jpg"", ""nature_114.jpg""]""",nature_114.jpg,True,old,True,1.6706666000009136,,04,24,23,004,/dss/studies/attentional-thief/data/sub-004/beh/attention_thief_ET_sub-004_2026-03-26_06h53.33.438.csv,55.0,76.22904000000017,False,True
,,time_estimation,1,active,1,1,9,23.681442799999783,3.5,-20.181442799999783,0.1477950490415234,0,"""[2.9078, 1.4572, 2.1908, 1.2899, 1.074, 1.1905, 2.2739, 1.5907, 1.0731]""","""[0.859, 0.9602, 0.7764, 0.7432, 0.8438, 0.9078, 0.8933, 0.7937, 0.96]""","""[""human_077.jpg"", ""human_033.jpg"", ""social_091.jpg"", ""human_101.jpg"", ""nature_092.jpg"", ""nature_086.jpg"", ""social_018.jpg"", ""social_120.jpg"", ""nature_038.jpg""]""",social_091.jpg,True,old,True,4.550677800001722,,005,24,23,005,/dss/studies/attentional-thief/data/sub-005/beh/attention_thief_ET_sub-005_2026-03-26_10h51.43.327.csv,3.5,23.681442799999783,False,True
,,time_estimation,1,active,1,2,12,32.487914600002114,4.5,-27.987914600002117,0.13851304570961,0,"""[2.9082, 1.6078, 1.7222, 1.4404, 1.607, 1.0237, 1.3071, 0.9731, 1.073, 2.5583, 2.7246, 1.9075]""","""[0.759, 0.9265, 0.7929, 0.71, 0.9599, 0.9104, 0.8768, 0.8593, 0.8271, 0.9604, 0.8597, 0.9936]""","""[""nature_008.jpg"", ""human_093.jpg"", ""human_059.jpg"", ""social_096.jpg"", ""nature_042.jpg"", ""nature_031.jpg"", ""social_070.jpg"", ""human_030.jpg"", ""social_110.jpg"", ""social_011.jpg"", ""human_032.jpg"", ""nature_084.jpg""]""",social_070.jpg,True,old,True,3.054054500000348,,005,24,23,005,/dss/studies/attentional-thief/data/sub-005/beh/attention_thief_ET_sub-005_2026-03-26_10h51.43.327.csv,4.5,32.487914600002114,False,True
,,time_estimation,1,active,1,3,18,53.05351620000147,8.0,-45.05351620000147,0.1507911364412031,0,"""[2.1406, 2.6244, 1.2846, 2.1247, 2.074, 1.8577, 1.6906, 1.5072, 3.1087, 1.6736, 1.9743, 2.1571, 1.3405, 1.0563, 3.3081, 2.6413, 1.6739, 1.5075]""","""[0.7266, 0.7603, 0.8436, 0.8934, 0.8098, 0.7103, 0.8431, 0.8436, 0.9934, 0.893, 0.8603, 0.9432, 0.927, 0.9933, 0.8437, 0.9269, 0.86, 0.9101]""","""[""social_008.jpg"", ""social_114.jpg"", ""nature_091.jpg"", ""social_061.jpg"", ""human_044.jpg"", ""nature_120.jpg"", ""human_027.jpg"", ""human_005.jpg"", ""social_041.jpg"", ""nature_090.jpg"", ""social_017.jpg"", ""human_035.jpg"", ""social_073.jpg"", ""human_080.jpg"", ""nature_076.jpg"", ""human_001.jpg"", ""nature_069.jpg"", ""nature_113.jpg""]""",nature_069.jpg,True,new,False,3.699446500002523,,005,24,23,005,/dss/studies/attentional-thief/data/sub-005/beh/attention_thief_ET_sub-005_2026-03-26_10h51.43.327.csv,8.0,53.05351620000147,False,True
,,time_estimation,1,passive,2,1,18,53.31257320000077,5.0,-48.31257320000077,0.0937865066321714,0,"""[1.3405, 1.2846, 2.074, 2.6413, 3.1087, 2.1247, 1.5075, 2.1571, 2.1406, 1.0563, 1.8577, 1.6736, 1.6906, 1.9743, 1.5072, 2.6244, 3.3081, 1.6739]""","""[0.927, 0.8436, 0.8098, 0.9269, 0.9934, 0.8934, 0.9101, 0.9432, 0.7266, 0.9933, 0.7103, 0.893, 0.8431, 0.8603, 0.8436, 0.7603, 0.8437, 0.86]""","""[""social_049.jpg"", ""human_048.jpg"", ""nature_067.jpg"", ""social_052.jpg"", ""social_023.jpg"", ""human_074.jpg"", ""social_035.jpg"", ""nature_099.jpg"", ""nature_103.jpg"", ""human_095.jpg"", ""social_004.jpg"", ""human_010.jpg"", ""social_080.jpg"", ""human_020.jpg"", ""nature_001.jpg"", ""nature_009.jpg"", ""nature_117.jpg"", ""human_018.jpg""]""",nature_009.jpg,True,old,True,4.602044600000227,,005,24,23,005,/dss/studies/attentional-thief/data/sub-005/beh/attention_thief_ET_sub-005_2026-03-26_10h51.43.327.csv,5.0,53.31257320000077,False,True
,,time_estimation,1,passive,2,2,9,23.708855299999414,4.5,-19.208855299999414,0.1898024996592775,0,"""[1.1905, 1.5907, 2.1908, 2.9078, 1.074, 2.2739, 1.4572, 1.2899, 1.0731]""","""[0.9078, 0.7937, 0.7764, 0.859, 0.8438, 0.8933, 0.9602, 0.7432, 0.96]""","""[""nature_044.jpg"", ""social_062.jpg"", ""human_028.jpg"", ""human_088.jpg"", ""social_016.jpg"", ""human_075.jpg"", ""nature_047.jpg"", ""nature_003.jpg"", ""social_044.jpg""]""",social_092.jpg,False,new,True,1.098365100002411,,005,24,23,005,/dss/studies/attentional-thief/data/sub-005/beh/attention_thief_ET_sub-005_2026-03-26_10h51.43.327.csv,4.5,23.708855299999414,False,True
,,time_estimation,1,passive,2,3,12,32.616398400001344,6.0,-26.616398400001344,0.1839565462261385,0,"""[0.9731, 1.4404, 2.9082, 1.7222, 1.6078, 2.5583, 1.607, 1.3071, 2.7246, 1.9075, 1.0237, 1.073]""","""[0.8593, 0.71, 0.759, 0.7929, 0.9265, 0.9604, 0.9599, 0.8768, 0.8597, 0.9936, 0.9104, 0.8271]""","""[""human_092.jpg"", ""nature_014.jpg"", ""nature_108.jpg"", ""human_025.jpg"", ""nature_045.jpg"", ""social_048.jpg"", ""nature_115.jpg"", ""social_083.jpg"", ""social_094.jpg"", ""human_066.jpg"", ""human_040.jpg"", ""social_076.jpg""]""",nature_010.jpg,False,new,True,1.29897340000025,,005,24,23,005,/dss/studies/attentional-thief/data/sub-005/beh/attention_thief_ET_sub-005_2026-03-26_10h51.43.327.csv,6.0,32.616398400001344,False,True
,,time_estimation,1,constant,3,1,12,32.600128699999914,6.0,-26.600128699999917,0.1840483531588025,0,,,"[""nature_074.jpg""]",nature_074.jpg,True,old,True,4.305018899998686,nature_074.jpg,005,24,23,005,/dss/studies/attentional-thief/data/sub-005/beh/attention_thief_ET_sub-005_2026-03-26_10h51.43.327.csv,6.0,32.600128699999914,False,True
,,time_estimation,1,constant,3,2,9,23.77710819999993,14.0,-9.77710819999993,0.5888016272727413,0,,,"[""human_096.jpg""]",nature_020.jpg,False,new,True,2.769250800000009,human_096.jpg,005,24,23,005,/dss/studies/attentional-thief/data/sub-005/beh/attention_thief_ET_sub-005_2026-03-26_10h51.43.327.csv,14.0,23.77710819999993,False,True
,,time_estimation,1,constant,3,3,18,53.1819136999984,40.5,-12.681913699998404,0.761537093765793,0,,,"[""social_109.jpg""]",social_109.jpg,True,old,True,1.9508428999979517,social_109.jpg,005,24,23,005,/dss/studies/attentional-thief/data/sub-005/beh/attention_thief_ET_sub-005_2026-03-26_10h51.43.327.csv,40.5,53.1819136999984,False,True
,,time_estimation,2,active,4,1,18,121.28217849999784,19.0,-102.28217849999784,0.156659455123494,0,"""[5.2099, 8.7124, 4.6925, 5.6263, 4.0256, 1.9909, 4.8263, 8.2782, 4.8432, 7.6615, 6.7778, 8.111, 5.8599, 9.8964, 4.2585, 2.6247, 2.9087, 7.1942]""","""[0.9087, 0.8098, 0.7762, 0.9104, 0.86, 0.8934, 0.8934, 0.9266, 0.7933, 0.9933, 1.0099, 0.9263, 0.8939, 0.9939, 0.9769, 0.8937, 0.86, 0.7929]""","""[""nature_030.jpg"", ""social_024.jpg"", ""social_106.jpg"", ""nature_018.jpg"", ""nature_021.jpg"", ""human_056.jpg"", ""human_047.jpg"", ""social_005.jpg"", ""nature_078.jpg"", ""human_105.jpg"", ""social_047.jpg"", ""social_087.jpg"", ""human_043.jpg"", ""social_116.jpg"", ""human_082.jpg"", ""nature_056.jpg"", ""nature_052.jpg"", ""human_107.jpg""]""",social_001.jpg,False,new,True,1.7199284999987867,,005,24,23,005,/dss/studies/attentional-thief/data/sub-005/beh/attention_thief_ET_sub-005_2026-03-26_10h51.43.327.csv,19.0,121.28217849999784,False,True
,,time_estimation,2,active,4,2,9,55.53762260000076,45.0,-10.53762260000076,0.8102615469175554,0,"""[7.8785, 5.51, 5.3596, 4.459, 6.7611, 6.0271, 3.6255, 3.4749, 3.6425]""","""[0.8922, 0.91, 0.7767, 0.9269, 0.9269, 0.9932, 0.7762, 0.8266, 0.9771]""","""[""nature_055.jpg"", ""social_117.jpg"", ""nature_029.jpg"", ""nature_110.jpg"", ""social_079.jpg"", ""human_103.jpg"", ""human_071.jpg"", ""human_076.jpg"", ""social_095.jpg""]""",social_105.jpg,False,new,True,1.312992999999551,,005,24,23,005,/dss/studies/attentional-thief/data/sub-005/beh/attention_thief_ET_sub-005_2026-03-26_10h51.43.327.csv,45.0,55.53762260000076,False,True
,,time_estimation,2,active,4,3,12,56.33941490000143,40.0,-16.33941490000143,0.7099825241528908,0,"""[5.2928, 3.2752, 3.4918, 4.1921, 2.9247, 3.9759, 2.3244, 3.3417, 3.6254, 3.8427, 3.4918, 5.8939]""","""[0.7099, 0.8607, 0.7765, 0.7599, 0.7435, 0.7933, 0.7745, 0.96, 0.8104, 0.8099, 0.7263, 0.8935]""","""[""human_091.jpg"", ""social_038.jpg"", ""social_071.jpg"", ""nature_028.jpg"", ""social_022.jpg"", ""human_039.jpg"", ""nature_116.jpg"", ""human_026.jpg"", ""nature_058.jpg"", ""human_085.jpg"", ""social_086.jpg"", ""nature_065.jpg""]""",social_043.jpg,False,new,True,3.193405699999857,,005,24,23,005,/dss/studies/attentional-thief/data/sub-005/beh/attention_thief_ET_sub-005_2026-03-26_10h51.43.327.csv,40.0,56.33941490000143,False,True
,,time_estimation,2,constant,5,1,18,121.39400359999854,85.0,-36.39400359999854,0.7001993301092594,0,,,"[""nature_061.jpg""]",nature_061.jpg,True,old,True,2.162164199999097,nature_061.jpg,005,24,23,005,/dss/studies/attentional-thief/data/sub-005/beh/attention_thief_ET_sub-005_2026-03-26_10h51.43.327.csv,85.0,121.39400359999854,False,True
